,blockorder,blockname,blocknumber,task,trialcount,tablerow,key,status,RT,target_button,batch,timeout,ITI,rate,rate_RT,rate_status,participant,correct,real,experience
0,1,TRAINING_BLOCK,2,TRAINING_TASK,1,9,2,1,7092,2,7954,1,539,6,0,0,1,1,0,3
1,1,TRAINING_BLOCK,2,TRAINING_TASK,2,19,2,1,8853,2,60000,1,554,6,0,0,1,1,0,3
2,1,TRAINING_BLOCK,2,TRAINING_TASK,3,16,2,1,2233,2,24440,1,465,6,0,0,1,1,0,3
3,1,TRAINING_BLOCK,2,TRAINING_TASK,4,30,2,2,2203,1,real,1,414,6,0,0,1,0,0,3
4,1,TRAINING_BLOCK,2,TRAINING_TASK,5,6,1,2,2866,2,1055,1,544,6,0,0,1,0,1,3
5,1,TRAINING_BLOCK,2,TRAINING_TASK,6,13,1,2,5401,2,24440,1,424,6,0,0,1,0,1,3
6,1,TRAINING_BLOCK,2,TRAINING_TASK,7,29,1,1,1368,1,real,1,597,6,0,0,1,1,1,3
7,1,TRAINING_BLOCK,2,TRAINING_TASK,8,7,2,1,1255,2,1055,1,532,6,0,0,1,1,0,3
8,1,TRAINING_BLOCK,2,TRAINING_TASK,9,20,1,2,1359,2,60000,1,571,6,0,0,1,0,1,3
9,1,TRAINING_BLOCK,2,TRAINING_TASK,10,2,1,2,5558,2,344,1,535,6,0,0,1,0,1,3
10,1,TRAINING_BLOCK,2,TRAINING_TASK,11,11,2,1,2177,2,7954,1,536,6,0,0,1,1,0,3
11,1,TRAINING_BLOCK,2,TRAINING_TASK,12,26,1,1,2901,1,real,1,436,6,0,0,1,1,1,3
12,1,TRAINING_BLOCK,2,TRAINING_TASK,13,17,1,2,2032,2,60000,1,440,6,0,0,1,0,1,3
13,1,TRAINING_BLOCK,2,TRAINING_TASK,14,18,2,1,1408,2,60000,1,402,6,0,0,1,1,0,3
14,1,TRAINING_BLOCK,2,TRAINING_TASK,15,15,2,1,1232,2,24440,1,432,6,0,0,1,1,0,3
15,1,TRAINING_BLOCK,2,TRAINING_TASK,16,25,1,1,770,1,real,1,413,6,0,0,1,1,1,3
16,1,TRAINING_BLOCK,2,TRAINING_TASK,17,4,1,2,1086,2,344,1,478,6,0,0,1,0,1,3
17,1,TRAINING_BLOCK,2,TRAINING_TASK,18,22,1,1,1219,1,real,1,419,6,0,0,1,1,1,3
18,1,TRAINING_BLOCK,2,TRAINING_TASK,19,10,1,2,2010,2,7954,1,429,6,0,0,1,0,1,3
19,1,TRAINING_BLOCK,2,TRAINING_TASK,20,14,1,2,2597,2,24440,1,456,6,0,0,1,0,1,3
20,1,TRAINING_BLOCK,2,TRAINING_TASK,21,23,1,1,1312,1,real,1,427,6,0,0,1,1,1,3
21,1,TRAINING_BLOCK,2,TRAINING_TASK,22,21,2,2,2050,1,real,1,506,6,0,0,1,0,0,3
22,1,TRAINING_BLOCK,2,TRAINING_TASK,23,27,1,1,1545,1,real,1,562,6,0,0,1,1,1,3
23,1,TRAINING_BLOCK,2,TRAINING_TASK,24,3,1,2,2959,2,344,1,540,6,0,0,1,0,1,3
24,1,TRAINING_BLOCK,2,TRAINING_TASK,25,1,1,2,1958,2,344,1,564,6,0,0,1,0,1,3
25,1,TRAINING_BLOCK,2,TRAINING_TASK,26,5,1,2,2493,2,1055,1,419,6,0,0,1,0,1,3
26,1,TRAINING_BLOCK,2,TRAINING_TASK,27,28,1,1,797,1,real,1,429,6,0,0,1,1,1,3
27,1,TRAINING_BLOCK,2,TRAINING_TASK,28,24,2,2,2663,1,real,1,547,6,0,0,1,0,0,3
28,1,TRAINING_BLOCK,2,TRAINING_TASK,29,12,1,2,932,2,7954,1,420,6,0,0,1,0,1,3
29,1,TRAINING_BLOCK,2,TRAINING_TASK,30,8,1,2,1068,2,1055,1,449,6,0,0,1,0,1,3
30,1,MAIN_EXPERIMENT_BLOCK,3,MAIN_EXPERIMENT_TASK,31,91,2,1,4101,2,7954,0,478,6,0,0,1,1,0,3
31,1,MAIN_EXPERIMENT_BLOCK,3,MAIN_EXPERIMENT_TASK,32,138,1,2,5098,2,60000,0,432,6,0,0,1,0,1,3
32,1,MAIN_EXPERIMENT_BLOCK,3,MAIN_EXPERIMENT_TASK,33,77,1,2,2288,2,7954,0,529,6,0,0,1,0,1,3
33,1,MAIN_EXPERIMENT_BLOCK,3,MAIN_EXPERIMENT_TASK,34,107,2,1,1643,2,24440,0,420,6,0,0,1,1,0,3
34,1,MAIN_EXPERIMENT_BLOCK,3,MAIN_EXPERIMENT_TASK,35,6,2,1,1845,2,344,0,502,6,0,0,1,1,0,3
35,1,MAIN_EXPERIMENT_BLOCK,3,MAIN_EXPERIMENT_TASK,36,44,1,2,1093,2,1055,0,574,6,0,0,1,0,1,3
36,1,MAIN_EXPERIMENT_BLOCK,3,MAIN_EXPERIMENT_TASK,37,30,2,1,2350,2,344,0,556,6,0,0,1,1,0,3
37,1,MAIN_EXPERIMENT_BLOCK,3,MAIN_EXPERIMENT_TASK,38,32,2,1,750,2,344,0,566,6,0,0,1,1,0,3
38,1,MAIN_EXPERIMENT_BLOCK,3,MAIN_EXPERIMENT_TASK,39,116,1,2,8165,2,24440,0,569,6,0,0,1,0,1,3
39,1,MAIN_EXPERIMENT_BLOCK,3,MAIN_EXPERIMENT_TASK,40,126,1,2,1465,2,24440,0,500,6,0,0,1,0,1,3
40,1,MAIN_EXPERIMENT_BLOCK,3,MAIN_EXPERIMENT_TASK,41,192,1,1,975,1,real,0,497,6,0,0,1,1,1,3
41,1,MAIN_EXPERIMENT_BLOCK,3,MAIN_EXPERIMENT_TASK,42,159,1,2,6514,2,60000,0,500,6,0,0,1,0,1,3
42,1,MAIN_EXPERIMENT_BLOCK,3,MAIN_EXPERIMENT_TASK,43,84,2,1,744,2,7954,0,487,6,0,0,1,1,0,3
43,1,MAIN_EXPERIMENT_BLOCK,3,MAIN_EXPERIMENT_TASK,44,140,2,1,1147,2,60000,0,450,6,0,0,1,1,0,3
44,1,MAIN_EXPERIMENT_BLOCK,3,MAIN_EXPERIMENT_TASK,45,53,1,2,1408,2,1055,0,558,6,0,0,1,0,1,3
45,1,MAIN_EXPERIMENT_BLOCK,3,MAIN_EXPERIMENT_TASK,46,50,1,2,1677,2,1055,0,578,6,0,0,1,0,1,3
46,1,MAIN_EXPERIMENT_BLOCK,3,MAIN_EXPERIMENT_TASK,47,211,1,1,1071,1,real,0,555,6,0,0,1,1,1,3
47,1,MAIN_EXPERIMENT_BLOCK,3,MAIN_EXPERIMENT_TASK,48,114,2,1,5760,2,24440,0,511,6,0,0,1,1,0,3
48,1,MAIN_EXPERIMENT_BLOCK,3,MAIN_EXPERIMENT_TASK,49,149,2,1,972,2,60000,0,572,6,0,0,1,1,0,3
49,1,MAIN_EXPERIMENT_BLOCK,3,MAIN_EXPERIMENT_TASK,50,14,1,2,1007,2,344,0,540,6,0,0,1,0,1,3
50,1,MAIN_EXPERIMENT_BLOCK,3,MAIN_EXPERIMENT_TASK,51,28,2,1,2622,2,344,0,484,6,0,0,1,1,0,3
51,1,MAIN_EXPERIMENT_BLOCK,3,MAIN_EXPERIMENT_TASK,52,207,2,2,8278,1,real,0,549,6,0,0,1,0,0,3
52,1,MAIN_EXPERIMENT_BLOCK,3,MAIN_EXPERIMENT_TASK,53,61,2,1,5262,2,1055,0,587,6,0,0,1,1,0,3
53,1,MAIN_EXPERIMENT_BLOCK,3,MAIN_EXPERIMENT_TASK,54,189,1,1,1167,1,real,0,435,6,0,0,1,1,1,3
54,1,MAIN_EXPERIMENT_BLOCK,3,MAIN_EXPERIMENT_TASK,55,161,1,1,1000,1,real,0,571,6,0,0,1,1,1,3
55,1,MAIN_EXPERIMENT_BLOCK,3,MAIN_EXPERIMENT_TASK,56,223,2,2,3849,1,real,0,433,6,0,0,1,0,0,3
56,1,MAIN_EXPERIMENT_BLOCK,3,MAIN_EXPERIMENT_TASK,57,115,2,1,2087,2,24440,0,524,6,0,0,1,1,0,3
57,1,MAIN_EXPERIMENT_BLOCK,3,MAIN_EXPERIMENT_TASK,58,188,1,1,1286,1,real,0,409,6,0,0,1,1,1,3
58,1,MAIN_EXPERIMENT_BLOCK,3,MAIN_EXPERIMENT_TASK,59,73,2,1,824,2,7954,0,497,6,0,0,1,1,0,3
59,1,MAIN_EXPERIMENT_BLOCK,3,MAIN_EXPERIMENT_TASK,60,214,1,1,1968,1,real,0,401,6,0,0,1,1,1,3
60,1,MAIN_EXPERIMENT_BLOCK,3,MAIN_EXPERIMENT_TASK,61,113,1,2,4584,2,24440,0,469,6,0,0,1,0,1,3
61,1,MAIN_EXPERIMENT_BLOCK,3,MAIN_EXPERIMENT_TASK,62,71,2,1,689,2,7954,0,508,6,0,0,1,1,0,3
62,1,MAIN_EXPERIMENT_BLOCK,3,MAIN_EXPERIMENT_TASK,63,109,2,1,1572,2,24440,0,513,6,0,0,1,1,0,3
63,1,MAIN_EXPERIMENT_BLOCK,3,MAIN_EXPERIMENT_TASK,64,69,2,1,1050,2,7954,0,568,6,0,0,1,1,0,3
64,1,MAIN_EXPERIMENT_BLOCK,3,MAIN_EXPERIMENT_TASK,65,199,1,1,701,1,real,0,428,6,0,0,1,1,1,3
65,1,MAIN_EXPERIMENT_BLOCK,3,MAIN_EXPERIMENT_TASK,66,217,1,1,797,1,real,0,425,6,0,0,1,1,1,3
66,1,MAIN_EXPERIMENT_BLOCK,3,MAIN_EXPERIMENT_TASK,67,16,2,1,1300,2,344,0,542,6,0,0,1,1,0,3
67,1,MAIN_EXPERIMENT_BLOCK,3,MAIN_EXPERIMENT_TASK,68,65,2,1,1125,2,7954,0,563,6,0,0,1,1,0,3
68,1,MAIN_EXPERIMENT_BLOCK,3,MAIN_EXPERIMENT_TASK,69,196,1,1,718,1,real,0,563,6,0,0,1,1,1,3
69,1,MAIN_EXPERIMENT_BLOCK,3,MAIN_EXPERIMENT_TASK,70,123,2,1,1859,2,24440,0,487,6,0,0,1,1,0,3
70,1,MAIN_EXPERIMENT_BLOCK,3,MAIN_EXPERIMENT_TASK,71,228,1,1,724,1,real,0,552,6,0,0,1,1,1,3
71,1,MAIN_EXPERIMENT_BLOCK,3,MAIN_EXPERIMENT_TASK,72,177,1,1,656,1,real,0,407,6,0,0,1,1,1,3
72,1,MAIN_EXPERIMENT_BLOCK,3,MAIN_EXPERIMENT_TASK,73,58,1,2,3436,2,1055,0,403,6,0,0,1,0,1,3
73,1,MAIN_EXPERIMENT_BLOCK,3,MAIN_EXPERIMENT_TASK,74,3,2,1,1849,2,344,0,418,6,0,0,1,1,0,3
74,1,MAIN_EXPERIMENT_BLOCK,3,MAIN_EXPERIMENT_TASK,75,85,2,1,894,2,7954,0,415,6,0,0,1,1,0,3
75,1,MAIN_EXPERIMENT_BLOCK,3,MAIN_EXPERIMENT_TASK,76,204,1,1,1195,1,real,0,485,6,0,0,1,1,1,3
76,1,MAIN_EXPERIMENT_BLOCK,3,MAIN_EXPERIMENT_TASK,77,110,2,1,4973,2,24440,0,570,6,0,0,1,1,0,3
77,1,MAIN_EXPERIMENT_BLOCK,3,MAIN_EXPERIMENT_TASK,78,234,1,1,759,1,real,0,432,6,0,0,1,1,1,3
78,1,MAIN_EXPERIMENT_BLOCK,3,MAIN_EXPERIMENT_TASK,79,175,2,2,1258,1,real,0,538,6,0,0,1,0,0,3
79,1,MAIN_EXPERIMENT_BLOCK,3,MAIN_EXPERIMENT_TASK,80,11,2,1,625,2,344,0,495,6,0,0,1,1,0,3
80,1,MAIN_EXPERIMENT_BLOCK,3,MAIN_EXPERIMENT_TASK,81,98,1,2,1459,2,24440,0,600,6,0,0,1,0,1,3
81,1,MAIN_EXPERIMENT_BLOCK,3,MAIN_EXPERIMENT_TASK,82,117,1,2,858,2,24440,0,521,6,0,0,1,0,1,3
82,1,MAIN_EXPERIMENT_BLOCK,3,MAIN_EXPERIMENT_TASK,83,230,1,1,811,1,real,0,586,6,0,0,1,1,1,3
83,1,MAIN_EXPERIMENT_BLOCK,3,MAIN_EXPERIMENT_TASK,84,104,2,1,1298,2,24440,0,436,6,0,0,1,1,0,3
84,1,MAIN_EXPERIMENT_BLOCK,3,MAIN_EXPERIMENT_TASK,85,111,2,1,688,2,24440,0,409,6,0,0,1,1,0,3
85,1,MAIN_EXPERIMENT_BLOCK,3,MAIN_EXPERIMENT_TASK,86,101,1,2,985,2,24440,0,589,6,0,0,1,0,1,3
86,1,MAIN_EXPERIMENT_BLOCK,3,MAIN_EXPERIMENT_TASK,87,106,2,1,1910,2,24440,0,487,6,0,0,1,1,0,3
87,1,MAIN_EXPERIMENT_BLOCK,3,MAIN_EXPERIMENT_TASK,88,180,1,1,4132,1,real,0,507,6,0,0,1,1,1,3
88,1,MAIN_EXPERIMENT_BLOCK,3,MAIN_EXPERIMENT_TASK,89,29,2,1,1072,2,344,0,509,6,0,0,1,1,0,3
89,1,MAIN_EXPERIMENT_BLOCK,3,MAIN_EXPERIMENT_TASK,90,88,2,1,1037,2,7954,0,447,6,0,0,1,1,0,3
90,1,MAIN_EXPERIMENT_BLOCK,3,MAIN_EXPERIMENT_TASK,91,169,1,1,837,1,real,0,588,6,0,0,1,1,1,3
91,1,MAIN_EXPERIMENT_BLOCK,3,MAIN_EXPERIMENT_TASK,92,133,1,2,919,2,60000,0,505,6,0,0,1,0,1,3
92,1,MAIN_EXPERIMENT_BLOCK,3,MAIN_EXPERIMENT_TASK,93,128,2,1,881,2,24440,0,436,6,0,0,1,1,0,3
93,1,MAIN_EXPERIMENT_BLOCK,3,MAIN_EXPERIMENT_TASK,94,96,2,1,685,2,7954,0,564,6,0,0,1,1,0,3
94,1,MAIN_EXPERIMENT_BLOCK,3,MAIN_EXPERIMENT_TASK,95,74,2,1,548,2,7954,0,538,6,0,0,1,1,0,3
95,1,MAIN_EXPERIMENT_BLOCK,3,MAIN_EXPERIMENT_TASK,96,208,1,1,785,1,real,0,592,6,0,0,1,1,1,3
96,1,MAIN_EXPERIMENT_BLOCK,3,MAIN_EXPERIMENT_TASK,97,198,1,1,594,1,real,0,432,6,0,0,1,1,1,3
97,1,MAIN_EXPERIMENT_BLOCK,3,MAIN_EXPERIMENT_TASK,98,25,1,2,1266,2,344,0,559,6,0,0,1,0,1,3
98,1,MAIN_EXPERIMENT_BLOCK,3,MAIN_EXPERIMENT_TASK,99,13,2,1,724,2,344,0,542,6,0,0,1,1,0,3
99,1,MAIN_EXPERIMENT_BLOCK,3,MAIN_EXPERIMENT_TASK,100,83,2,1,709,2,7954,0,478,6,0,0,1,1,0,3
100,1,MAIN_EXPERIMENT_BLOCK,3,MAIN_EXPERIMENT_TASK,101,236,1,1,678,1,real,0,516,6,0,0,1,1,1,3
101,1,MAIN_EXPERIMENT_BLOCK,3,MAIN_EXPERIMENT_TASK,102,233,1,1,681,1,real,0,495,6,0,0,1,1,1,3
102,1,MAIN_EXPERIMENT_BLOCK,3,MAIN_EXPERIMENT_TASK,103,62,2,1,612,2,1055,0,562,6,0,0,1,1,0,3
103,1,MAIN_EXPERIMENT_BLOCK,3,MAIN_EXPERIMENT_TASK,104,36,2,1,1463,2,1055,0,408,6,0,0,1,1,0,3
104,1,MAIN_EXPERIMENT_BLOCK,3,MAIN_EXPERIMENT_TASK,105,157,2,1,633,2,60000,0,545,6,0,0,1,1,0,3
105,1,MAIN_EXPERIMENT_BLOCK,3,MAIN_EXPERIMENT_TASK,106,191,1,1,809,1,real,0,550,6,0,0,1,1,1,3
106,1,MAIN_EXPERIMENT_BLOCK,3,MAIN_EXPERIMENT_TASK,107,41,2,1,877,2,1055,0,507,6,0,0,1,1,0,3
107,1,MAIN_EXPERIMENT_BLOCK,3,MAIN_EXPERIMENT_TASK,108,220,1,1,690,1,real,0,432,6,0,0,1,1,1,3
108,1,MAIN_EXPERIMENT_BLOCK,3,MAIN_EXPERIMENT_TASK,109,72,2,1,1841,2,7954,0,588,6,0,0,1,1,0,3
109,1,MAIN_EXPERIMENT_BLOCK,3,MAIN_EXPERIMENT_TASK,110,34,2,1,679,2,1055,0,437,6,0,0,1,1,0,3
110,1,MAIN_EXPERIMENT_BLOCK,3,MAIN_EXPERIMENT_TASK,111,63,2,2,300390,2,1055,0,418,6,0,0,1,0,0,3
111,1,MAIN_EXPERIMENT_BLOCK,3,MAIN_EXPERIMENT_TASK,112,35,2,1,1431,2,1055,0,523,6,0,0,1,1,0,3
112,1,MAIN_EXPERIMENT_BLOCK,3,MAIN_EXPERIMENT_TASK,113,125,1,2,1752,2,24440,0,408,6,0,0,1,0,1,3
113,1,MAIN_EXPERIMENT_BLOCK,3,MAIN_EXPERIMENT_TASK,114,102,1,2,979,2,24440,0,437,6,0,0,1,0,1,3
114,1,MAIN_EXPERIMENT_BLOCK,3,MAIN_EXPERIMENT_TASK,115,210,2,2,891,1,real,0,580,6,0,0,1,0,0,3
115,1,MAIN_EXPERIMENT_BLOCK,3,MAIN_EXPERIMENT_TASK,116,79,2,1,639,2,7954,0,519,6,0,0,1,1,0,3
116,1,MAIN_EXPERIMENT_BLOCK,3,MAIN_EXPERIMENT_TASK,117,197,2,2,1686,1,real,0,479,6,0,0,1,0,0,3
117,1,MAIN_EXPERIMENT_BLOCK,3,MAIN_EXPERIMENT_TASK,118,144,2,1,2042,2,60000,0,483,6,0,0,1,1,0,3
118,1,MAIN_EXPERIMENT_BLOCK,3,MAIN_EXPERIMENT_TASK,119,213,1,1,2295,1,real,0,551,6,0,0,1,1,1,3
119,1,MAIN_EXPERIMENT_BLOCK,3,MAIN_EXPERIMENT_TASK,120,172,1,1,1810,1,real,0,432,6,0,0,1,1,1,3
120,1,MAIN_EXPERIMENT_BLOCK,3,MAIN_EXPERIMENT_TASK,121,155,2,1,2242,2,60000,0,440,6,0,0,1,1,0,3
121,1,MAIN_EXPERIMENT_BLOCK,3,MAIN_EXPERIMENT_TASK,122,203,1,1,2084,1,real,0,512,6,0,0,1,1,1,3
122,1,MAIN_EXPERIMENT_BLOCK,3,MAIN_EXPERIMENT_TASK,123,57,2,1,1760,2,1055,0,514,6,0,0,1,1,0,3
123,1,MAIN_EXPERIMENT_BLOCK,3,MAIN_EXPERIMENT_TASK,124,239,1,1,776,1,real,0,469,6,0,0,1,1,1,3
124,1,MAIN_EXPERIMENT_BLOCK,3,MAIN_EXPERIMENT_TASK,125,120,2,1,1382,2,24440,0,565,6,0,0,1,1,0,3
125,1,MAIN_EXPERIMENT_BLOCK,3,MAIN_EXPERIMENT_TASK,126,145,1,2,4630,2,60000,0,432,6,0,0,1,0,1,3
126,1,MAIN_EXPERIMENT_BLOCK,3,MAIN_EXPERIMENT_TASK,127,46,2,1,1026,2,1055,0,436,6,0,0,1,1,0,3
127,1,MAIN_EXPERIMENT_BLOCK,3,MAIN_EXPERIMENT_TASK,128,100,2,1,1549,2,24440,0,417,6,0,0,1,1,0,3
128,1,MAIN_EXPERIMENT_BLOCK,3,MAIN_EXPERIMENT_TASK,129,237,1,1,1303,1,real,0,588,6,0,0,1,1,1,3
129,1,MAIN_EXPERIMENT_BLOCK,3,MAIN_EXPERIMENT_TASK,130,240,2,2,822,1,real,0,539,6,0,0,1,0,0,3
130,1,MAIN_EXPERIMENT_BLOCK,3,MAIN_EXPERIMENT_TASK,131,150,1,2,2598,2,60000,0,586,6,0,0,1,0,1,3
131,1,MAIN_EXPERIMENT_BLOCK,3,MAIN_EXPERIMENT_TASK,132,108,1,2,2177,2,24440,0,483,6,0,0,1,0,1,3
132,1,MAIN_EXPERIMENT_BLOCK,3,MAIN_EXPERIMENT_TASK,133,80,1,2,2945,2,7954,0,438,6,0,0,1,0,1,3
133,1,MAIN_EXPERIMENT_BLOCK,3,MAIN_EXPERIMENT_TASK,134,184,2,2,2806,1,real,0,574,6,0,0,1,0,0,3
134,1,MAIN_EXPERIMENT_BLOCK,3,MAIN_EXPERIMENT_TASK,135,17,1,2,1948,2,344,0,504,6,0,0,1,0,1,3
135,1,MAIN_EXPERIMENT_BLOCK,3,MAIN_EXPERIMENT_TASK,136,142,1,2,8130,2,60000,0,488,6,0,0,1,0,1,3
136,1,MAIN_EXPERIMENT_BLOCK,3,MAIN_EXPERIMENT_TASK,137,154,2,1,5311,2,60000,0,446,6,0,0,1,1,0,3
137,1,MAIN_EXPERIMENT_BLOCK,3,MAIN_EXPERIMENT_TASK,138,195,2,2,686,1,real,0,503,6,0,0,1,0,0,3
138,1,MAIN_EXPERIMENT_BLOCK,3,MAIN_EXPERIMENT_TASK,139,129,2,1,1133,2,60000,0,558,6,0,0,1,1,0,3
139,1,MAIN_EXPERIMENT_BLOCK,3,MAIN_EXPERIMENT_TASK,140,156,2,1,707,2,60000,0,432,6,0,0,1,1,0,3
140,1,MAIN_EXPERIMENT_BLOCK,3,MAIN_EXPERIMENT_TASK,141,221,2,2,1004,1,real,0,476,6,0,0,1,0,0,3
141,1,MAIN_EXPERIMENT_BLOCK,3,MAIN_EXPERIMENT_TASK,142,86,2,1,1294,2,7954,0,578,6,0,0,1,1,0,3
142,1,MAIN_EXPERIMENT_BLOCK,3,MAIN_EXPERIMENT_TASK,143,167,1,1,1559,1,real,0,471,6,0,0,1,1,1,3
143,1,MAIN_EXPERIMENT_BLOCK,3,MAIN_EXPERIMENT_TASK,144,4,1,2,3029,2,344,0,504,6,0,0,1,0,1,3
144,1,MAIN_EXPERIMENT_BLOCK,3,MAIN_EXPERIMENT_TASK,145,139,2,1,1433,2,60000,0,575,6,0,0,1,1,0,3
145,1,MAIN_EXPERIMENT_BLOCK,3,MAIN_EXPERIMENT_TASK,146,1,2,1,2051,2,344,0,499,6,0,0,1,1,0,3
146,1,MAIN_EXPERIMENT_BLOCK,3,MAIN_EXPERIMENT_TASK,147,23,1,2,1232,2,344,0,462,6,0,0,1,0,1,3
147,1,MAIN_EXPERIMENT_BLOCK,3,MAIN_EXPERIMENT_TASK,148,105,2,1,1476,2,24440,0,485,6,0,0,1,1,0,3
148,1,MAIN_EXPERIMENT_BLOCK,3,MAIN_EXPERIMENT_TASK,149,185,2,2,4903,1,real,0,491,6,0,0,1,0,0,3
149,1,MAIN_EXPERIMENT_BLOCK,3,MAIN_EXPERIMENT_TASK,150,130,2,1,1368,2,60000,0,408,6,0,0,1,1,0,3
150,1,MAIN_EXPERIMENT_BLOCK,3,MAIN_EXPERIMENT_TASK,151,132,2,1,1155,2,60000,0,453,6,0,0,1,1,0,3
151,1,MAIN_EXPERIMENT_BLOCK,3,MAIN_EXPERIMENT_TASK,152,212,1,1,1045,1,real,0,406,6,0,0,1,1,1,3
152,1,MAIN_EXPERIMENT_BLOCK,3,MAIN_EXPERIMENT_TASK,153,60,2,1,1637,2,1055,0,416,6,0,0,1,1,0,3
153,1,MAIN_EXPERIMENT_BLOCK,3,MAIN_EXPERIMENT_TASK,154,205,2,2,1114,1,real,0,400,6,0,0,1,0,0,3
154,1,MAIN_EXPERIMENT_BLOCK,3,MAIN_EXPERIMENT_TASK,155,89,2,1,1253,2,7954,0,593,6,0,0,1,1,0,3
155,1,MAIN_EXPERIMENT_BLOCK,3,MAIN_EXPERIMENT_TASK,156,39,1,2,1714,2,1055,0,599,6,0,0,1,0,1,3
156,1,MAIN_EXPERIMENT_BLOCK,3,MAIN_EXPERIMENT_TASK,157,27,1,2,1019,2,344,0,560,6,0,0,1,0,1,3
157,1,MAIN_EXPERIMENT_BLOCK,3,MAIN_EXPERIMENT_TASK,158,229,2,2,1426,1,real,0,486,6,0,0,1,0,0,3
158,1,MAIN_EXPERIMENT_BLOCK,3,MAIN_EXPERIMENT_TASK,159,170,1,1,4092,1,real,0,588,6,0,0,1,1,1,3
159,1,MAIN_EXPERIMENT_BLOCK,3,MAIN_EXPERIMENT_TASK,160,56,1,2,3512,2,1055,0,482,6,0,0,1,0,1,3
160,1,MAIN_EXPERIMENT_BLOCK,3,MAIN_EXPERIMENT_TASK,161,67,1,2,847,2,7954,0,492,6,0,0,1,0,1,3
161,1,MAIN_EXPERIMENT_BLOCK,3,MAIN_EXPERIMENT_TASK,162,20,1,2,728,2,344,0,420,6,0,0,1,0,1,3
162,1,MAIN_EXPERIMENT_BLOCK,3,MAIN_EXPERIMENT_TASK,163,136,2,1,1150,2,60000,0,435,6,0,0,1,1,0,3
163,1,MAIN_EXPERIMENT_BLOCK,3,MAIN_EXPERIMENT_TASK,164,178,2,2,2503,1,real,0,420,6,0,0,1,0,0,3
164,1,MAIN_EXPERIMENT_BLOCK,3,MAIN_EXPERIMENT_TASK,165,48,2,1,887,2,1055,0,495,6,0,0,1,1,0,3
165,1,MAIN_EXPERIMENT_BLOCK,3,MAIN_EXPERIMENT_TASK,166,181,1,1,1196,1,real,0,535,6,0,0,1,1,1,3
166,1,MAIN_EXPERIMENT_BLOCK,3,MAIN_EXPERIMENT_TASK,167,165,1,1,1443,1,real,0,568,6,0,0,1,1,1,3
167,1,MAIN_EXPERIMENT_BLOCK,3,MAIN_EXPERIMENT_TASK,168,97,1,2,1117,2,24440,0,533,6,0,0,1,0,1,3
168,1,MAIN_EXPERIMENT_BLOCK,3,MAIN_EXPERIMENT_TASK,169,151,2,1,974,2,60000,0,469,6,0,0,1,1,0,3
169,1,MAIN_EXPERIMENT_BLOCK,3,MAIN_EXPERIMENT_TASK,170,2,2,1,927,2,344,0,526,6,0,0,1,1,0,3
170,1,MAIN_EXPERIMENT_BLOCK,3,MAIN_EXPERIMENT_TASK,171,40,2,1,558,2,1055,0,491,6,0,0,1,1,0,3
171,1,MAIN_EXPERIMENT_BLOCK,3,MAIN_EXPERIMENT_TASK,172,37,2,1,438,2,1055,0,521,6,0,0,1,1,0,3
172,1,MAIN_EXPERIMENT_BLOCK,3,MAIN_EXPERIMENT_TASK,173,201,1,1,1202,1,real,0,456,6,0,0,1,1,1,3
173,1,MAIN_EXPERIMENT_BLOCK,3,MAIN_EXPERIMENT_TASK,174,45,2,1,877,2,1055,0,528,6,0,0,1,1,0,3
174,1,MAIN_EXPERIMENT_BLOCK,3,MAIN_EXPERIMENT_TASK,175,227,1,1,746,1,real,0,526,6,0,0,1,1,1,3
175,1,MAIN_EXPERIMENT_BLOCK,3,MAIN_EXPERIMENT_TASK,176,12,1,2,749,2,344,0,595,6,0,0,1,0,1,3
176,1,MAIN_EXPERIMENT_BLOCK,3,MAIN_EXPERIMENT_TASK,177,127,1,2,1927,2,24440,0,436,6,0,0,1,0,1,3
177,1,MAIN_EXPERIMENT_BLOCK,3,MAIN_EXPERIMENT_TASK,178,173,1,1,1541,1,real,0,484,6,0,0,1,1,1,3
178,1,MAIN_EXPERIMENT_BLOCK,3,MAIN_EXPERIMENT_TASK,179,9,1,2,1047,2,344,0,427,6,0,0,1,0,1,3
179,1,MAIN_EXPERIMENT_BLOCK,3,MAIN_EXPERIMENT_TASK,180,163,2,2,911,1,real,0,594,6,0,0,1,0,0,3
180,1,MAIN_EXPERIMENT_BLOCK,3,MAIN_EXPERIMENT_TASK,181,222,2,2,441,1,real,0,575,6,0,0,1,0,0,3
181,1,MAIN_EXPERIMENT_BLOCK,3,MAIN_EXPERIMENT_TASK,182,99,2,1,2306,2,24440,0,453,6,0,0,1,1,0,3
182,1,MAIN_EXPERIMENT_BLOCK,3,MAIN_EXPERIMENT_TASK,183,82,2,1,1622,2,7954,0,414,6,0,0,1,1,0,3
183,1,MAIN_EXPERIMENT_BLOCK,3,MAIN_EXPERIMENT_TASK,184,70,2,1,3925,2,7954,0,588,6,0,0,1,1,0,3
184,1,MAIN_EXPERIMENT_BLOCK,3,MAIN_EXPERIMENT_TASK,185,26,2,1,854,2,344,0,542,6,0,0,1,1,0,3
185,1,MAIN_EXPERIMENT_BLOCK,3,MAIN_EXPERIMENT_TASK,186,38,2,1,884,2,1055,0,525,6,0,0,1,1,0,3
186,1,MAIN_EXPERIMENT_BLOCK,3,MAIN_EXPERIMENT_TASK,187,95,2,1,855,2,7954,0,445,6,0,0,1,1,0,3
187,1,MAIN_EXPERIMENT_BLOCK,3,MAIN_EXPERIMENT_TASK,188,122,2,1,1254,2,24440,0,563,6,0,0,1,1,0,3
188,1,MAIN_EXPERIMENT_BLOCK,3,MAIN_EXPERIMENT_TASK,189,218,1,1,2783,1,real,0,447,6,0,0,1,1,1,3
189,1,MAIN_EXPERIMENT_BLOCK,3,MAIN_EXPERIMENT_TASK,190,90,2,1,2588,2,7954,0,427,6,0,0,1,1,0,3
190,1,MAIN_EXPERIMENT_BLOCK,3,MAIN_EXPERIMENT_TASK,191,59,1,2,968,2,1055,0,584,6,0,0,1,0,1,3
191,1,MAIN_EXPERIMENT_BLOCK,3,MAIN_EXPERIMENT_TASK,192,231,2,2,73302,1,real,0,521,6,0,0,1,0,0,3
192,1,MAIN_EXPERIMENT_BLOCK,3,MAIN_EXPERIMENT_TASK,193,87,2,1,4899,2,7954,0,566,6,0,0,1,1,0,3
193,1,MAIN_EXPERIMENT_BLOCK,3,MAIN_EXPERIMENT_TASK,194,51,2,1,907,2,1055,0,591,6,0,0,1,1,0,3
194,1,MAIN_EXPERIMENT_BLOCK,3,MAIN_EXPERIMENT_TASK,195,112,2,1,1925,2,24440,0,438,6,0,0,1,1,0,3
195,1,MAIN_EXPERIMENT_BLOCK,3,MAIN_EXPERIMENT_TASK,196,143,1,2,677,2,60000,0,529,6,0,0,1,0,1,3
196,1,MAIN_EXPERIMENT_BLOCK,3,MAIN_EXPERIMENT_TASK,197,226,2,2,2442,1,real,0,461,6,0,0,1,0,0,3
197,1,MAIN_EXPERIMENT_BLOCK,3,MAIN_EXPERIMENT_TASK,198,176,1,1,2669,1,real,0,422,6,0,0,1,1,1,3
198,1,MAIN_EXPERIMENT_BLOCK,3,MAIN_EXPERIMENT_TASK,199,7,1,2,1293,2,344,0,567,6,0,0,1,0,1,3
199,1,MAIN_EXPERIMENT_BLOCK,3,MAIN_EXPERIMENT_TASK,200,182,2,2,3547,1,real,0,529,6,0,0,1,0,0,3
200,1,MAIN_EXPERIMENT_BLOCK,3,MAIN_EXPERIMENT_TASK,201,22,2,1,1792,2,344,0,435,6,0,0,1,1,0,3
201,1,MAIN_EXPERIMENT_BLOCK,3,MAIN_EXPERIMENT_TASK,202,174,2,2,1119,1,real,0,427,6,0,0,1,0,0,3
202,1,MAIN_EXPERIMENT_BLOCK,3,MAIN_EXPERIMENT_TASK,203,33,2,1,1032,2,1055,0,538,6,0,0,1,1,0,3
203,1,MAIN_EXPERIMENT_BLOCK,3,MAIN_EXPERIMENT_TASK,204,153,1,2,1122,2,60000,0,481,6,0,0,1,0,1,3
204,1,MAIN_EXPERIMENT_BLOCK,3,MAIN_EXPERIMENT_TASK,205,232,1,1,666,1,real,0,431,6,0,0,1,1,1,3
205,1,MAIN_EXPERIMENT_BLOCK,3,MAIN_EXPERIMENT_TASK,206,187,1,1,748,1,real,0,568,6,0,0,1,1,1,3
206,1,MAIN_EXPERIMENT_BLOCK,3,MAIN_EXPERIMENT_TASK,207,193,1,1,697,1,real,0,552,6,0,0,1,1,1,3
207,1,MAIN_EXPERIMENT_BLOCK,3,MAIN_EXPERIMENT_TASK,208,215,2,2,914,1,real,0,490,6,0,0,1,0,0,3
208,1,MAIN_EXPERIMENT_BLOCK,3,MAIN_EXPERIMENT_TASK,209,209,1,1,834,1,real,0,523,6,0,0,1,1,1,3
209,1,MAIN_EXPERIMENT_BLOCK,3,MAIN_EXPERIMENT_TASK,210,131,2,1,744,2,60000,0,514,6,0,0,1,1,0,3
210,1,MAIN_EXPERIMENT_BLOCK,3,MAIN_EXPERIMENT_TASK,211,200,1,1,3832,1,real,0,505,6,0,0,1,1,1,3
211,1,MAIN_EXPERIMENT_BLOCK,3,MAIN_EXPERIMENT_TASK,212,76,2,1,3123,2,7954,0,510,6,0,0,1,1,0,3
212,1,MAIN_EXPERIMENT_BLOCK,3,MAIN_EXPERIMENT_TASK,213,64,2,1,1759,2,1055,0,430,6,0,0,1,1,0,3
213,1,MAIN_EXPERIMENT_BLOCK,3,MAIN_EXPERIMENT_TASK,214,158,2,1,1035,2,60000,0,408,6,0,0,1,1,0,3
214,1,MAIN_EXPERIMENT_BLOCK,3,MAIN_EXPERIMENT_TASK,215,121,2,1,1396,2,24440,0,424,6,0,0,1,1,0,3
215,1,MAIN_EXPERIMENT_BLOCK,3,MAIN_EXPERIMENT_TASK,216,18,2,1,988,2,344,0,444,6,0,0,1,1,0,3
216,1,MAIN_EXPERIMENT_BLOCK,3,MAIN_EXPERIMENT_TASK,217,124,2,1,783,2,24440,0,560,6,0,0,1,1,0,3
217,1,MAIN_EXPERIMENT_BLOCK,3,MAIN_EXPERIMENT_TASK,218,19,2,1,2165,2,344,0,476,6,0,0,1,1,0,3
218,1,MAIN_EXPERIMENT_BLOCK,3,MAIN_EXPERIMENT_TASK,219,152,1,2,847,2,60000,0,447,6,0,0,1,0,1,3
219,1,MAIN_EXPERIMENT_BLOCK,3,MAIN_EXPERIMENT_TASK,220,68,1,2,1059,2,7954,0,587,6,0,0,1,0,1,3
220,1,MAIN_EXPERIMENT_BLOCK,3,MAIN_EXPERIMENT_TASK,221,141,2,1,704,2,60000,0,507,6,0,0,1,1,0,3
221,1,MAIN_EXPERIMENT_BLOCK,3,MAIN_EXPERIMENT_TASK,222,94,1,2,642,2,7954,0,578,6,0,0,1,0,1,3
222,1,MAIN_EXPERIMENT_BLOCK,3,MAIN_EXPERIMENT_TASK,223,171,2,2,2760,1,real,0,437,6,0,0,1,0,0,3
223,1,MAIN_EXPERIMENT_BLOCK,3,MAIN_EXPERIMENT_TASK,224,164,1,1,992,1,real,0,453,6,0,0,1,1,1,3
224,1,MAIN_EXPERIMENT_BLOCK,3,MAIN_EXPERIMENT_TASK,225,103,1,2,1137,2,24440,0,563,6,0,0,1,0,1,3
225,1,MAIN_EXPERIMENT_BLOCK,3,MAIN_EXPERIMENT_TASK,226,179,2,2,2327,1,real,0,600,6,0,0,1,0,0,3
226,1,MAIN_EXPERIMENT_BLOCK,3,MAIN_EXPERIMENT_TASK,227,31,2,1,1978,2,344,0,520,6,0,0,1,1,0,3
227,1,MAIN_EXPERIMENT_BLOCK,3,MAIN_EXPERIMENT_TASK,228,147,1,2,3377,2,60000,0,580,6,0,0,1,0,1,3
228,1,MAIN_EXPERIMENT_BLOCK,3,MAIN_EXPERIMENT_TASK,229,10,1,2,950,2,344,0,437,6,0,0,1,0,1,3
229,1,MAIN_EXPERIMENT_BLOCK,3,MAIN_EXPERIMENT_TASK,230,224,2,2,1910,1,real,0,595,6,0,0,1,0,0,3
230,1,MAIN_EXPERIMENT_BLOCK,3,MAIN_EXPERIMENT_TASK,231,66,2,1,1525,2,7954,0,448,6,0,0,1,1,0,3
231,1,MAIN_EXPERIMENT_BLOCK,3,MAIN_EXPERIMENT_TASK,232,43,2,1,738,2,1055,0,480,6,0,0,1,1,0,3
232,1,MAIN_EXPERIMENT_BLOCK,3,MAIN_EXPERIMENT_TASK,233,24,1,2,1131,2,344,0,435,6,0,0,1,0,1,3
233,1,MAIN_EXPERIMENT_BLOCK,3,MAIN_EXPERIMENT_TASK,234,137,2,1,3592,2,60000,0,423,6,0,0,1,1,0,3
234,1,MAIN_EXPERIMENT_BLOCK,3,MAIN_EXPERIMENT_TASK,235,119,2,1,1837,2,24440,0,537,6,0,0,1,1,0,3
235,1,MAIN_EXPERIMENT_BLOCK,3,MAIN_EXPERIMENT_TASK,236,78,2,1,674,2,7954,0,580,6,0,0,1,1,0,3
236,1,MAIN_EXPERIMENT_BLOCK,3,MAIN_EXPERIMENT_TASK,237,42,2,1,582,2,1055,0,511,6,0,0,1,1,0,3
237,1,MAIN_EXPERIMENT_BLOCK,3,MAIN_EXPERIMENT_TASK,238,206,1,1,787,1,real,0,527,6,0,0,1,1,1,3
238,1,MAIN_EXPERIMENT_BLOCK,3,MAIN_EXPERIMENT_TASK,239,54,2,1,609,2,1055,0,466,6,0,0,1,1,0,3
239,1,MAIN_EXPERIMENT_BLOCK,3,MAIN_EXPERIMENT_TASK,240,219,1,1,603,1,real,0,562,6,0,0,1,1,1,3
240,1,MAIN_EXPERIMENT_BLOCK,3,MAIN_EXPERIMENT_TASK,241,15,1,2,984,2,344,0,410,6,0,0,1,0,1,3
241,1,MAIN_EXPERIMENT_BLOCK,3,MAIN_EXPERIMENT_TASK,242,81,1,2,2920,2,7954,0,578,6,0,0,1,0,1,3
242,1,MAIN_EXPERIMENT_BLOCK,3,MAIN_EXPERIMENT_TASK,243,49,2,1,1000,2,1055,0,559,6,0,0,1,1,0,3
243,1,MAIN_EXPERIMENT_BLOCK,3,MAIN_EXPERIMENT_TASK,244,160,2,1,771,2,60000,0,551,6,0,0,1,1,0,3
244,1,MAIN_EXPERIMENT_BLOCK,3,MAIN_EXPERIMENT_TASK,245,235,2,2,982,1,real,0,426,6,0,0,1,0,0,3
245,1,MAIN_EXPERIMENT_BLOCK,3,MAIN_EXPERIMENT_TASK,246,216,2,2,760,1,real,0,443,6,0,0,1,0,0,3
246,1,MAIN_EXPERIMENT_BLOCK,3,MAIN_EXPERIMENT_TASK,247,5,1,2,1393,2,344,0,550,6,0,0,1,0,1,3
247,1,MAIN_EXPERIMENT_BLOCK,3,MAIN_EXPERIMENT_TASK,248,225,2,2,2363,1,real,0,487,6,0,0,1,0,0,3
248,1,MAIN_EXPERIMENT_BLOCK,3,MAIN_EXPERIMENT_TASK,249,183,2,2,1097,1,real,0,449,6,0,0,1,0,0,3
249,1,MAIN_EXPERIMENT_BLOCK,3,MAIN_EXPERIMENT_TASK,250,92,1,2,5784,2,7954,0,424,6,0,0,1,0,1,3
250,1,MAIN_EXPERIMENT_BLOCK,3,MAIN_EXPERIMENT_TASK,251,162,2,2,3938,1,real,0,428,6,0,0,1,0,0,3
251,1,MAIN_EXPERIMENT_BLOCK,3,MAIN_EXPERIMENT_TASK,252,134,2,1,2408,2,60000,0,440,6,0,0,1,1,0,3
252,1,MAIN_EXPERIMENT_BLOCK,3,MAIN_EXPERIMENT_TASK,253,75,2,1,4315,2,7954,0,456,6,0,0,1,1,0,3
253,1,MAIN_EXPERIMENT_BLOCK,3,MAIN_EXPERIMENT_TASK,254,8,2,1,602,2,344,0,556,6,0,0,1,1,0,3
254,1,MAIN_EXPERIMENT_BLOCK,3,MAIN_EXPERIMENT_TASK,255,146,2,1,1421,2,60000,0,469,6,0,0,1,1,0,3
255,1,MAIN_EXPERIMENT_BLOCK,3,MAIN_EXPERIMENT_TASK,256,186,2,2,1463,1,real,0,471,6,0,0,1,0,0,3
256,1,MAIN_EXPERIMENT_BLOCK,3,MAIN_EXPERIMENT_TASK,257,202,2,2,853,1,real,0,437,6,0,0,1,0,0,3
257,1,MAIN_EXPERIMENT_BLOCK,3,MAIN_EXPERIMENT_TASK,258,118,2,1,4751,2,24440,0,492,6,0,0,1,1,0,3
258,1,MAIN_EXPERIMENT_BLOCK,3,MAIN_EXPERIMENT_TASK,259,135,2,1,3733,2,60000,0,422,6,0,0,1,1,0,3
259,1,MAIN_EXPERIMENT_BLOCK,3,MAIN_EXPERIMENT_TASK,260,238,1,1,1700,1,real,0,562,6,0,0,1,1,1,3
260,1,MAIN_EXPERIMENT_BLOCK,3,MAIN_EXPERIMENT_TASK,261,21,2,1,922,2,344,0,454,6,0,0,1,1,0,3
261,1,MAIN_EXPERIMENT_BLOCK,3,MAIN_EXPERIMENT_TASK,262,52,1,2,1605,2,1055,0,578,6,0,0,1,0,1,3
262,1,MAIN_EXPERIMENT_BLOCK,3,MAIN_EXPERIMENT_TASK,263,194,2,2,1403,1,real,0,487,6,0,0,1,0,0,3
263,1,MAIN_EXPERIMENT_BLOCK,3,MAIN_EXPERIMENT_TASK,264,93,1,2,733,2,7954,0,574,6,0,0,1,0,1,3
264,1,MAIN_EXPERIMENT_BLOCK,3,MAIN_EXPERIMENT_TASK,265,55,2,1,693,2,1055,0,585,6,0,0,1,1,0,3
265,1,MAIN_EXPERIMENT_BLOCK,3,MAIN_EXPERIMENT_TASK,266,190,2,2,1172,1,real,0,426,6,0,0,1,0,0,3
266,1,MAIN_EXPERIMENT_BLOCK,3,MAIN_EXPERIMENT_TASK,267,168,2,2,865,1,real,0,530,6,0,0,1,0,0,3
267,1,MAIN_EXPERIMENT_BLOCK,3,MAIN_EXPERIMENT_TASK,268,148,1,2,1321,2,60000,0,448,6,0,0,1,0,1,3
268,1,MAIN_EXPERIMENT_BLOCK,3,MAIN_EXPERIMENT_TASK,269,47,2,1,1531,2,1055,0,452,6,0,0,1,1,0,3
269,1,MAIN_EXPERIMENT_BLOCK,3,MAIN_EXPERIMENT_TASK,270,166,2,2,927,1,real,0,439,6,0,0,1,0,0,3
270,1,RATING_BLOCK,4,RATING_TASK,271,1,0,0,0,0,344,0,0,4,8075,1,1,2,2,3
271,1,RATING_BLOCK,4,RATING_TASK,272,6,0,0,0,0,1055,0,0,2,4962,1,1,2,2,3
272,1,RATING_BLOCK,4,RATING_TASK,273,16,0,0,0,0,24440,0,0,2,7500,1,1,2,2,3
273,1,RATING_BLOCK,4,RATING_TASK,274,21,0,0,0,0,60000,0,0,4,6172,1,1,2,2,3
274,1,RATING_BLOCK,4,RATING_TASK,275,2,0,0,0,0,344,0,0,3,2380,1,1,2,2,3
275,1,RATING_BLOCK,4,RATING_TASK,276,3,0,0,0,0,344,0,0,3,2077,1,1,2,2,3
276,1,RATING_BLOCK,4,RATING_TASK,277,30,0,0,0,0,real,0,0,2,9757,1,1,2,2,3
277,1,RATING_BLOCK,4,RATING_TASK,278,26,0,0,0,0,real,0,0,2,2035,1,1,2,2,3
278,1,RATING_BLOCK,4,RATING_TASK,279,20,0,0,0,0,24440,0,0,3,2420,1,1,2,2,3
279,1,RATING_BLOCK,4,RATING_TASK,280,9,0,0,0,0,1055,0,0,1,3077,1,1,2,2,3
280,1,RATING_BLOCK,4,RATING_TASK,281,13,0,0,0,0,7954,0,0,1,3661,1,1,2,2,3
281,1,RATING_BLOCK,4,RATING_TASK,282,18,0,0,0,0,24440,0,0,2,2004,1,1,2,2,3
282,1,RATING_BLOCK,4,RATING_TASK,283,8,0,0,0,0,1055,0,0,3,1387,1,1,2,2,3
283,1,RATING_BLOCK,4,RATING_TASK,284,12,0,0,0,0,7954,0,0,3,3133,1,1,2,2,3
284,1,RATING_BLOCK,4,RATING_TASK,285,10,0,0,0,0,1055,0,0,3,1461,1,1,2,2,3
285,1,RATING_BLOCK,4,RATING_TASK,286,25,0,0,0,0,60000,0,0,2,4070,1,1,2,2,3
286,1,RATING_BLOCK,4,RATING_TASK,287,15,0,0,0,0,7954,0,0,2,4222,1,1,2,2,3
287,1,RATING_BLOCK,4,RATING_TASK,288,24,0,0,0,0,60000,0,0,3,3747,1,1,2,2,3
288,1,RATING_BLOCK,4,RATING_TASK,289,29,0,0,0,0,real,0,0,4,4573,1,1,2,2,3
289,1,RATING_BLOCK,4,RATING_TASK,290,5,0,0,0,0,344,0,0,3,940,1,1,2,2,3
290,1,RATING_BLOCK,4,RATING_TASK,291,23,0,0,0,0,60000,0,0,3,1923,1,1,2,2,3
291,1,RATING_BLOCK,4,RATING_TASK,292,27,0,0,0,0,real,0,0,4,7333,1,1,2,2,3
292,1,RATING_BLOCK,4,RATING_TASK,293,14,0,0,0,0,7954,0,0,3,1164,1,1,2,2,3
293,1,RATING_BLOCK,4,RATING_TASK,294,28,0,0,0,0,real,0,0,4,2020,1,1,2,2,3
294,1,RATING_BLOCK,4,RATING_TASK,295,11,0,0,0,0,7954,0,0,4,892,1,1,2,2,3
295,1,RATING_BLOCK,4,RATING_TASK,296,17,0,0,0,0,24440,0,0,4,1213,1,1,2,2,3
296,1,RATING_BLOCK,4,RATING_TASK,297,19,0,0,0,0,24440,0,0,2,1782,1,1,2,2,3
297,1,RATING_BLOCK,4,RATING_TASK,298,7,0,0,0,0,1055,0,0,3,1045,1,1,2,2,3
298,1,RATING_BLOCK,4,RATING_TASK,299,4,0,0,0,0,344,0,0,3,1084,1,1,2,2,3
299,1,RATING_BLOCK,4,RATING_TASK,300,22,0,0,0,0,60000,0,0,3,5565,1,1,2,2,3
0,1,TRAINING_BLOCK,2,TRAINING_TASK,1,23,1,1,1185,1,real,1,467,6,0,0,2,1,1,3
1,1,TRAINING_BLOCK,2,TRAINING_TASK,2,9,2,1,2293,2,7954,1,564,6,0,0,2,1,0,3
2,1,TRAINING_BLOCK,2,TRAINING_TASK,3,14,2,1,3535,2,24440,1,458,6,0,0,2,1,0,3
3,1,TRAINING_BLOCK,2,TRAINING_TASK,4,28,1,1,2244,1,real,1,436,6,0,0,2,1,1,3
4,1,TRAINING_BLOCK,2,TRAINING_TASK,5,27,1,1,2935,1,real,1,460,6,0,0,2,1,1,3
5,1,TRAINING_BLOCK,2,TRAINING_TASK,6,25,2,2,2739,1,real,1,573,6,0,0,2,0,0,3
6,1,TRAINING_BLOCK,2,TRAINING_TASK,7,6,2,1,1132,2,1055,1,493,6,0,0,2,1,0,3
7,1,TRAINING_BLOCK,2,TRAINING_TASK,8,30,1,1,1141,1,real,1,420,6,0,0,2,1,1,3
8,1,TRAINING_BLOCK,2,TRAINING_TASK,9,10,2,1,3113,2,7954,1,463,6,0,0,2,1,0,3
9,1,TRAINING_BLOCK,2,TRAINING_TASK,10,7,2,1,927,2,1055,1,438,6,0,0,2,1,0,3
10,1,TRAINING_BLOCK,2,TRAINING_TASK,11,11,2,1,1502,2,7954,1,510,6,0,0,2,1,0,3
11,1,TRAINING_BLOCK,2,TRAINING_TASK,12,4,2,1,734,2,344,1,520,6,0,0,2,1,0,3
12,1,TRAINING_BLOCK,2,TRAINING_TASK,13,19,1,2,2816,2,60000,1,553,6,0,0,2,0,1,3
13,1,TRAINING_BLOCK,2,TRAINING_TASK,14,13,1,2,2947,2,24440,1,537,6,0,0,2,0,1,3
14,1,TRAINING_BLOCK,2,TRAINING_TASK,15,21,1,1,1431,1,real,1,432,6,0,0,2,1,1,3
15,1,TRAINING_BLOCK,2,TRAINING_TASK,16,22,1,1,1820,1,real,1,505,6,0,0,2,1,1,3
16,1,TRAINING_BLOCK,2,TRAINING_TASK,17,2,2,1,632,2,344,1,440,6,0,0,2,1,0,3
17,1,TRAINING_BLOCK,2,TRAINING_TASK,18,16,2,1,2759,2,24440,1,591,6,0,0,2,1,0,3
18,1,TRAINING_BLOCK,2,TRAINING_TASK,19,5,2,1,761,2,1055,1,555,6,0,0,2,1,0,3
19,1,TRAINING_BLOCK,2,TRAINING_TASK,20,12,2,1,1240,2,7954,1,412,6,0,0,2,1,0,3
20,1,TRAINING_BLOCK,2,TRAINING_TASK,21,20,1,2,1774,2,60000,1,480,6,0,0,2,0,1,3
21,1,TRAINING_BLOCK,2,TRAINING_TASK,22,26,1,1,972,1,real,1,544,6,0,0,2,1,1,3
22,1,TRAINING_BLOCK,2,TRAINING_TASK,23,17,2,1,3494,2,60000,1,417,6,0,0,2,1,0,3
23,1,TRAINING_BLOCK,2,TRAINING_TASK,24,18,2,1,3165,2,60000,1,558,6,0,0,2,1,0,3
24,1,TRAINING_BLOCK,2,TRAINING_TASK,25,3,2,1,901,2,344,1,529,6,0,0,2,1,0,3
25,1,TRAINING_BLOCK,2,TRAINING_TASK,26,1,2,1,646,2,344,1,543,6,0,0,2,1,0,3
26,1,TRAINING_BLOCK,2,TRAINING_TASK,27,8,2,1,1282,2,1055,1,458,6,0,0,2,1,0,3
27,1,TRAINING_BLOCK,2,TRAINING_TASK,28,29,1,1,2802,1,real,1,488,6,0,0,2,1,1,3
28,1,TRAINING_BLOCK,2,TRAINING_TASK,29,24,2,2,7382,1,real,1,474,6,0,0,2,0,0,3
29,1,TRAINING_BLOCK,2,TRAINING_TASK,30,15,2,1,1580,2,24440,1,569,6,0,0,2,1,0,3
30,1,MAIN_EXPERIMENT_BLOCK,3,MAIN_EXPERIMENT_TASK,31,234,1,1,3519,1,real,0,401,6,0,0,2,1,1,3
31,1,MAIN_EXPERIMENT_BLOCK,3,MAIN_EXPERIMENT_TASK,32,84,2,1,2583,2,7954,0,402,6,0,0,2,1,0,3
32,1,MAIN_EXPERIMENT_BLOCK,3,MAIN_EXPERIMENT_TASK,33,23,2,1,875,2,344,0,596,6,0,0,2,1,0,3
33,1,MAIN_EXPERIMENT_BLOCK,3,MAIN_EXPERIMENT_TASK,34,42,2,1,812,2,1055,0,578,6,0,0,2,1,0,3
34,1,MAIN_EXPERIMENT_BLOCK,3,MAIN_EXPERIMENT_TASK,35,221,1,1,4341,1,real,0,524,6,0,0,2,1,1,3
35,1,MAIN_EXPERIMENT_BLOCK,3,MAIN_EXPERIMENT_TASK,36,65,2,1,1347,2,7954,0,435,6,0,0,2,1,0,3
36,1,MAIN_EXPERIMENT_BLOCK,3,MAIN_EXPERIMENT_TASK,37,182,1,1,2374,1,real,0,559,6,0,0,2,1,1,3
37,1,MAIN_EXPERIMENT_BLOCK,3,MAIN_EXPERIMENT_TASK,38,80,2,1,1275,2,7954,0,404,6,0,0,2,1,0,3
38,1,MAIN_EXPERIMENT_BLOCK,3,MAIN_EXPERIMENT_TASK,39,54,2,1,802,2,1055,0,591,6,0,0,2,1,0,3
39,1,MAIN_EXPERIMENT_BLOCK,3,MAIN_EXPERIMENT_TASK,40,20,2,1,571,2,344,0,510,6,0,0,2,1,0,3
40,1,MAIN_EXPERIMENT_BLOCK,3,MAIN_EXPERIMENT_TASK,41,40,2,1,819,2,1055,0,574,6,0,0,2,1,0,3
41,1,MAIN_EXPERIMENT_BLOCK,3,MAIN_EXPERIMENT_TASK,42,131,1,2,4793,2,60000,0,592,6,0,0,2,0,1,3
42,1,MAIN_EXPERIMENT_BLOCK,3,MAIN_EXPERIMENT_TASK,43,200,1,1,1369,1,real,0,559,6,0,0,2,1,1,3
43,1,MAIN_EXPERIMENT_BLOCK,3,MAIN_EXPERIMENT_TASK,44,4,2,1,611,2,344,0,581,6,0,0,2,1,0,3
44,1,MAIN_EXPERIMENT_BLOCK,3,MAIN_EXPERIMENT_TASK,45,51,2,1,581,2,1055,0,498,6,0,0,2,1,0,3
45,1,MAIN_EXPERIMENT_BLOCK,3,MAIN_EXPERIMENT_TASK,46,91,2,1,2510,2,7954,0,462,6,0,0,2,1,0,3
46,1,MAIN_EXPERIMENT_BLOCK,3,MAIN_EXPERIMENT_TASK,47,117,1,2,8024,2,24440,0,487,6,0,0,2,0,1,3
47,1,MAIN_EXPERIMENT_BLOCK,3,MAIN_EXPERIMENT_TASK,48,155,2,1,3231,2,60000,0,593,6,0,0,2,1,0,3
48,1,MAIN_EXPERIMENT_BLOCK,3,MAIN_EXPERIMENT_TASK,49,174,1,1,1014,1,real,0,480,6,0,0,2,1,1,3
49,1,MAIN_EXPERIMENT_BLOCK,3,MAIN_EXPERIMENT_TASK,50,118,2,1,5223,2,24440,0,585,6,0,0,2,1,0,3
50,1,MAIN_EXPERIMENT_BLOCK,3,MAIN_EXPERIMENT_TASK,51,31,2,1,640,2,344,0,401,6,0,0,2,1,0,3
51,1,MAIN_EXPERIMENT_BLOCK,3,MAIN_EXPERIMENT_TASK,52,71,2,1,1000,2,7954,0,579,6,0,0,2,1,0,3
52,1,MAIN_EXPERIMENT_BLOCK,3,MAIN_EXPERIMENT_TASK,53,202,1,1,1079,1,real,0,475,6,0,0,2,1,1,3
53,1,MAIN_EXPERIMENT_BLOCK,3,MAIN_EXPERIMENT_TASK,54,197,1,1,1404,1,real,0,531,6,0,0,2,1,1,3
54,1,MAIN_EXPERIMENT_BLOCK,3,MAIN_EXPERIMENT_TASK,55,189,1,1,2159,1,real,0,504,6,0,0,2,1,1,3
55,1,MAIN_EXPERIMENT_BLOCK,3,MAIN_EXPERIMENT_TASK,56,13,2,1,639,2,344,0,474,6,0,0,2,1,0,3
56,1,MAIN_EXPERIMENT_BLOCK,3,MAIN_EXPERIMENT_TASK,57,154,2,1,4364,2,60000,0,461,6,0,0,2,1,0,3
57,1,MAIN_EXPERIMENT_BLOCK,3,MAIN_EXPERIMENT_TASK,58,111,2,1,3020,2,24440,0,470,6,0,0,2,1,0,3
58,1,MAIN_EXPERIMENT_BLOCK,3,MAIN_EXPERIMENT_TASK,59,93,2,1,945,2,7954,0,595,6,0,0,2,1,0,3
59,1,MAIN_EXPERIMENT_BLOCK,3,MAIN_EXPERIMENT_TASK,60,213,1,1,3776,1,real,0,560,6,0,0,2,1,1,3
60,1,MAIN_EXPERIMENT_BLOCK,3,MAIN_EXPERIMENT_TASK,61,185,1,1,1014,1,real,0,402,6,0,0,2,1,1,3
61,1,MAIN_EXPERIMENT_BLOCK,3,MAIN_EXPERIMENT_TASK,62,184,1,1,2080,1,real,0,500,6,0,0,2,1,1,3
62,1,MAIN_EXPERIMENT_BLOCK,3,MAIN_EXPERIMENT_TASK,63,135,2,1,3864,2,60000,0,458,6,0,0,2,1,0,3
63,1,MAIN_EXPERIMENT_BLOCK,3,MAIN_EXPERIMENT_TASK,64,3,2,1,583,2,344,0,582,6,0,0,2,1,0,3
64,1,MAIN_EXPERIMENT_BLOCK,3,MAIN_EXPERIMENT_TASK,65,41,2,1,779,2,1055,0,468,6,0,0,2,1,0,3
65,1,MAIN_EXPERIMENT_BLOCK,3,MAIN_EXPERIMENT_TASK,66,50,2,1,556,2,1055,0,561,6,0,0,2,1,0,3
66,1,MAIN_EXPERIMENT_BLOCK,3,MAIN_EXPERIMENT_TASK,67,83,2,1,996,2,7954,0,480,6,0,0,2,1,0,3
67,1,MAIN_EXPERIMENT_BLOCK,3,MAIN_EXPERIMENT_TASK,68,142,1,2,4460,2,60000,0,417,6,0,0,2,0,1,3
68,1,MAIN_EXPERIMENT_BLOCK,3,MAIN_EXPERIMENT_TASK,69,25,2,1,714,2,344,0,504,6,0,0,2,1,0,3
69,1,MAIN_EXPERIMENT_BLOCK,3,MAIN_EXPERIMENT_TASK,70,191,1,1,1415,1,real,0,500,6,0,0,2,1,1,3
70,1,MAIN_EXPERIMENT_BLOCK,3,MAIN_EXPERIMENT_TASK,71,17,2,1,663,2,344,0,511,6,0,0,2,1,0,3
71,1,MAIN_EXPERIMENT_BLOCK,3,MAIN_EXPERIMENT_TASK,72,53,2,1,899,2,1055,0,485,6,0,0,2,1,0,3
72,1,MAIN_EXPERIMENT_BLOCK,3,MAIN_EXPERIMENT_TASK,73,145,1,2,2489,2,60000,0,450,6,0,0,2,0,1,3
73,1,MAIN_EXPERIMENT_BLOCK,3,MAIN_EXPERIMENT_TASK,74,86,2,1,1931,2,7954,0,411,6,0,0,2,1,0,3
74,1,MAIN_EXPERIMENT_BLOCK,3,MAIN_EXPERIMENT_TASK,75,124,2,1,4456,2,24440,0,477,6,0,0,2,1,0,3
75,1,MAIN_EXPERIMENT_BLOCK,3,MAIN_EXPERIMENT_TASK,76,64,2,1,553,2,1055,0,531,6,0,0,2,1,0,3
76,1,MAIN_EXPERIMENT_BLOCK,3,MAIN_EXPERIMENT_TASK,77,204,1,1,1081,1,real,0,486,6,0,0,2,1,1,3
77,1,MAIN_EXPERIMENT_BLOCK,3,MAIN_EXPERIMENT_TASK,78,156,2,1,2222,2,60000,0,564,6,0,0,2,1,0,3
78,1,MAIN_EXPERIMENT_BLOCK,3,MAIN_EXPERIMENT_TASK,79,134,1,2,5935,2,60000,0,447,6,0,0,2,0,1,3
79,1,MAIN_EXPERIMENT_BLOCK,3,MAIN_EXPERIMENT_TASK,80,207,2,2,11970,1,real,0,498,6,0,0,2,0,0,3
80,1,MAIN_EXPERIMENT_BLOCK,3,MAIN_EXPERIMENT_TASK,81,138,1,2,3402,2,60000,0,511,6,0,0,2,0,1,3
81,1,MAIN_EXPERIMENT_BLOCK,3,MAIN_EXPERIMENT_TASK,82,77,2,1,1554,2,7954,0,592,6,0,0,2,1,0,3
82,1,MAIN_EXPERIMENT_BLOCK,3,MAIN_EXPERIMENT_TASK,83,68,2,1,1098,2,7954,0,520,6,0,0,2,1,0,3
83,1,MAIN_EXPERIMENT_BLOCK,3,MAIN_EXPERIMENT_TASK,84,55,2,1,833,2,1055,0,486,6,0,0,2,1,0,3
84,1,MAIN_EXPERIMENT_BLOCK,3,MAIN_EXPERIMENT_TASK,85,121,1,2,6510,2,24440,0,543,6,0,0,2,0,1,3
85,1,MAIN_EXPERIMENT_BLOCK,3,MAIN_EXPERIMENT_TASK,86,90,2,1,2234,2,7954,0,435,6,0,0,2,1,0,3
86,1,MAIN_EXPERIMENT_BLOCK,3,MAIN_EXPERIMENT_TASK,87,237,1,1,1143,1,real,0,430,6,0,0,2,1,1,3
87,1,MAIN_EXPERIMENT_BLOCK,3,MAIN_EXPERIMENT_TASK,88,183,1,1,871,1,real,0,519,6,0,0,2,1,1,3
88,1,MAIN_EXPERIMENT_BLOCK,3,MAIN_EXPERIMENT_TASK,89,128,2,1,934,2,24440,0,467,6,0,0,2,1,0,3
89,1,MAIN_EXPERIMENT_BLOCK,3,MAIN_EXPERIMENT_TASK,90,167,1,1,1452,1,real,0,566,6,0,0,2,1,1,3
90,1,MAIN_EXPERIMENT_BLOCK,3,MAIN_EXPERIMENT_TASK,91,45,2,1,707,2,1055,0,434,6,0,0,2,1,0,3
91,1,MAIN_EXPERIMENT_BLOCK,3,MAIN_EXPERIMENT_TASK,92,235,1,1,1885,1,real,0,466,6,0,0,2,1,1,3
92,1,MAIN_EXPERIMENT_BLOCK,3,MAIN_EXPERIMENT_TASK,93,26,2,1,676,2,344,0,462,6,0,0,2,1,0,3
93,1,MAIN_EXPERIMENT_BLOCK,3,MAIN_EXPERIMENT_TASK,94,215,1,1,880,1,real,0,415,6,0,0,2,1,1,3
94,1,MAIN_EXPERIMENT_BLOCK,3,MAIN_EXPERIMENT_TASK,95,58,2,1,819,2,1055,0,402,6,0,0,2,1,0,3
95,1,MAIN_EXPERIMENT_BLOCK,3,MAIN_EXPERIMENT_TASK,96,107,2,1,5058,2,24440,0,402,6,0,0,2,1,0,3
96,1,MAIN_EXPERIMENT_BLOCK,3,MAIN_EXPERIMENT_TASK,97,48,2,1,1058,2,1055,0,420,6,0,0,2,1,0,3
97,1,MAIN_EXPERIMENT_BLOCK,3,MAIN_EXPERIMENT_TASK,98,7,2,1,571,2,344,0,448,6,0,0,2,1,0,3
98,1,MAIN_EXPERIMENT_BLOCK,3,MAIN_EXPERIMENT_TASK,99,56,2,1,776,2,1055,0,600,6,0,0,2,1,0,3
99,1,MAIN_EXPERIMENT_BLOCK,3,MAIN_EXPERIMENT_TASK,100,192,1,1,1688,1,real,0,400,6,0,0,2,1,1,3
100,1,MAIN_EXPERIMENT_BLOCK,3,MAIN_EXPERIMENT_TASK,101,38,2,1,917,2,1055,0,423,6,0,0,2,1,0,3
101,1,MAIN_EXPERIMENT_BLOCK,3,MAIN_EXPERIMENT_TASK,102,172,1,1,1505,1,real,0,474,6,0,0,2,1,1,3
102,1,MAIN_EXPERIMENT_BLOCK,3,MAIN_EXPERIMENT_TASK,103,169,1,1,2252,1,real,0,539,6,0,0,2,1,1,3
103,1,MAIN_EXPERIMENT_BLOCK,3,MAIN_EXPERIMENT_TASK,104,37,2,1,721,2,1055,0,450,6,0,0,2,1,0,3
104,1,MAIN_EXPERIMENT_BLOCK,3,MAIN_EXPERIMENT_TASK,105,52,2,1,567,2,1055,0,433,6,0,0,2,1,0,3
105,1,MAIN_EXPERIMENT_BLOCK,3,MAIN_EXPERIMENT_TASK,106,137,1,2,841,2,60000,0,550,6,0,0,2,0,1,3
106,1,MAIN_EXPERIMENT_BLOCK,3,MAIN_EXPERIMENT_TASK,107,73,2,1,3921,2,7954,0,508,6,0,0,2,1,0,3
107,1,MAIN_EXPERIMENT_BLOCK,3,MAIN_EXPERIMENT_TASK,108,110,1,2,1897,2,24440,0,409,6,0,0,2,0,1,3
108,1,MAIN_EXPERIMENT_BLOCK,3,MAIN_EXPERIMENT_TASK,109,8,2,1,888,2,344,0,482,6,0,0,2,1,0,3
109,1,MAIN_EXPERIMENT_BLOCK,3,MAIN_EXPERIMENT_TASK,110,209,1,1,1126,1,real,0,456,6,0,0,2,1,1,3
110,1,MAIN_EXPERIMENT_BLOCK,3,MAIN_EXPERIMENT_TASK,111,198,1,2,6863,1,real,0,462,6,0,0,2,0,1,3
111,1,MAIN_EXPERIMENT_BLOCK,3,MAIN_EXPERIMENT_TASK,112,219,2,2,2743,1,real,0,441,6,0,0,2,0,0,3
112,1,MAIN_EXPERIMENT_BLOCK,3,MAIN_EXPERIMENT_TASK,113,63,2,1,1354,2,1055,0,450,6,0,0,2,1,0,3
113,1,MAIN_EXPERIMENT_BLOCK,3,MAIN_EXPERIMENT_TASK,114,230,2,2,2945,1,real,0,421,6,0,0,2,0,0,3
114,1,MAIN_EXPERIMENT_BLOCK,3,MAIN_EXPERIMENT_TASK,115,78,2,1,720,2,7954,0,452,6,0,0,2,1,0,3
115,1,MAIN_EXPERIMENT_BLOCK,3,MAIN_EXPERIMENT_TASK,116,123,2,1,672,2,24440,0,477,6,0,0,2,1,0,3
116,1,MAIN_EXPERIMENT_BLOCK,3,MAIN_EXPERIMENT_TASK,117,218,2,2,467,1,real,0,561,6,0,0,2,0,0,3
117,1,MAIN_EXPERIMENT_BLOCK,3,MAIN_EXPERIMENT_TASK,118,203,1,1,712,1,real,0,461,6,0,0,2,1,1,3
118,1,MAIN_EXPERIMENT_BLOCK,3,MAIN_EXPERIMENT_TASK,119,127,2,1,7999,2,24440,0,512,6,0,0,2,1,0,3
119,1,MAIN_EXPERIMENT_BLOCK,3,MAIN_EXPERIMENT_TASK,120,100,2,1,547,2,24440,0,538,6,0,0,2,1,0,3
120,1,MAIN_EXPERIMENT_BLOCK,3,MAIN_EXPERIMENT_TASK,121,92,2,1,701,2,7954,0,525,6,0,0,2,1,0,3
121,1,MAIN_EXPERIMENT_BLOCK,3,MAIN_EXPERIMENT_TASK,122,44,2,1,722,2,1055,0,435,6,0,0,2,1,0,3
122,1,MAIN_EXPERIMENT_BLOCK,3,MAIN_EXPERIMENT_TASK,123,144,1,2,1324,2,60000,0,418,6,0,0,2,0,1,3
123,1,MAIN_EXPERIMENT_BLOCK,3,MAIN_EXPERIMENT_TASK,124,228,1,1,785,1,real,0,521,6,0,0,2,1,1,3
124,1,MAIN_EXPERIMENT_BLOCK,3,MAIN_EXPERIMENT_TASK,125,148,2,1,4618,2,60000,0,418,6,0,0,2,1,0,3
125,1,MAIN_EXPERIMENT_BLOCK,3,MAIN_EXPERIMENT_TASK,126,163,1,1,1175,1,real,0,417,6,0,0,2,1,1,3
126,1,MAIN_EXPERIMENT_BLOCK,3,MAIN_EXPERIMENT_TASK,127,165,1,1,935,1,real,0,536,6,0,0,2,1,1,3
127,1,MAIN_EXPERIMENT_BLOCK,3,MAIN_EXPERIMENT_TASK,128,69,2,1,724,2,7954,0,460,6,0,0,2,1,0,3
128,1,MAIN_EXPERIMENT_BLOCK,3,MAIN_EXPERIMENT_TASK,129,39,2,1,619,2,1055,0,521,6,0,0,2,1,0,3
129,1,MAIN_EXPERIMENT_BLOCK,3,MAIN_EXPERIMENT_TASK,130,108,2,1,2881,2,24440,0,576,6,0,0,2,1,0,3
130,1,MAIN_EXPERIMENT_BLOCK,3,MAIN_EXPERIMENT_TASK,131,85,2,1,804,2,7954,0,588,6,0,0,2,1,0,3
131,1,MAIN_EXPERIMENT_BLOCK,3,MAIN_EXPERIMENT_TASK,132,116,2,1,571,2,24440,0,574,6,0,0,2,1,0,3
132,1,MAIN_EXPERIMENT_BLOCK,3,MAIN_EXPERIMENT_TASK,133,29,2,1,982,2,344,0,405,6,0,0,2,1,0,3
133,1,MAIN_EXPERIMENT_BLOCK,3,MAIN_EXPERIMENT_TASK,134,193,1,1,764,1,real,0,486,6,0,0,2,1,1,3
134,1,MAIN_EXPERIMENT_BLOCK,3,MAIN_EXPERIMENT_TASK,135,101,1,2,3788,2,24440,0,542,6,0,0,2,0,1,3
135,1,MAIN_EXPERIMENT_BLOCK,3,MAIN_EXPERIMENT_TASK,136,59,2,1,641,2,1055,0,575,6,0,0,2,1,0,3
136,1,MAIN_EXPERIMENT_BLOCK,3,MAIN_EXPERIMENT_TASK,137,211,1,1,973,1,real,0,412,6,0,0,2,1,1,3
137,1,MAIN_EXPERIMENT_BLOCK,3,MAIN_EXPERIMENT_TASK,138,89,1,2,1150,2,7954,0,410,6,0,0,2,0,1,3
138,1,MAIN_EXPERIMENT_BLOCK,3,MAIN_EXPERIMENT_TASK,139,99,2,1,1322,2,24440,0,554,6,0,0,2,1,0,3
139,1,MAIN_EXPERIMENT_BLOCK,3,MAIN_EXPERIMENT_TASK,140,208,1,1,646,1,real,0,560,6,0,0,2,1,1,3
140,1,MAIN_EXPERIMENT_BLOCK,3,MAIN_EXPERIMENT_TASK,141,239,2,2,1217,1,real,0,505,6,0,0,2,0,0,3
141,1,MAIN_EXPERIMENT_BLOCK,3,MAIN_EXPERIMENT_TASK,142,187,1,1,3853,1,real,0,576,6,0,0,2,1,1,3
142,1,MAIN_EXPERIMENT_BLOCK,3,MAIN_EXPERIMENT_TASK,143,196,1,1,935,1,real,0,471,6,0,0,2,1,1,3
143,1,MAIN_EXPERIMENT_BLOCK,3,MAIN_EXPERIMENT_TASK,144,82,2,1,2148,2,7954,0,450,6,0,0,2,1,0,3
144,1,MAIN_EXPERIMENT_BLOCK,3,MAIN_EXPERIMENT_TASK,145,194,1,1,2306,1,real,0,421,6,0,0,2,1,1,3
145,1,MAIN_EXPERIMENT_BLOCK,3,MAIN_EXPERIMENT_TASK,146,10,2,1,632,2,344,0,475,6,0,0,2,1,0,3
146,1,MAIN_EXPERIMENT_BLOCK,3,MAIN_EXPERIMENT_TASK,147,157,1,2,2017,2,60000,0,472,6,0,0,2,0,1,3
147,1,MAIN_EXPERIMENT_BLOCK,3,MAIN_EXPERIMENT_TASK,148,122,1,2,5054,2,24440,0,456,6,0,0,2,0,1,3
148,1,MAIN_EXPERIMENT_BLOCK,3,MAIN_EXPERIMENT_TASK,149,114,1,2,1721,2,24440,0,522,6,0,0,2,0,1,3
149,1,MAIN_EXPERIMENT_BLOCK,3,MAIN_EXPERIMENT_TASK,150,75,2,1,1341,2,7954,0,464,6,0,0,2,1,0,3
150,1,MAIN_EXPERIMENT_BLOCK,3,MAIN_EXPERIMENT_TASK,151,164,1,1,716,1,real,0,462,6,0,0,2,1,1,3
151,1,MAIN_EXPERIMENT_BLOCK,3,MAIN_EXPERIMENT_TASK,152,12,2,1,868,2,344,0,576,6,0,0,2,1,0,3
152,1,MAIN_EXPERIMENT_BLOCK,3,MAIN_EXPERIMENT_TASK,153,5,2,1,519,2,344,0,495,6,0,0,2,1,0,3
153,1,MAIN_EXPERIMENT_BLOCK,3,MAIN_EXPERIMENT_TASK,154,130,1,2,2499,2,60000,0,590,6,0,0,2,0,1,3
154,1,MAIN_EXPERIMENT_BLOCK,3,MAIN_EXPERIMENT_TASK,155,170,1,1,685,1,real,0,524,6,0,0,2,1,1,3
155,1,MAIN_EXPERIMENT_BLOCK,3,MAIN_EXPERIMENT_TASK,156,220,1,1,1343,1,real,0,556,6,0,0,2,1,1,3
156,1,MAIN_EXPERIMENT_BLOCK,3,MAIN_EXPERIMENT_TASK,157,205,1,1,1922,1,real,0,510,6,0,0,2,1,1,3
157,1,MAIN_EXPERIMENT_BLOCK,3,MAIN_EXPERIMENT_TASK,158,141,2,1,2533,2,60000,0,509,6,0,0,2,1,0,3
158,1,MAIN_EXPERIMENT_BLOCK,3,MAIN_EXPERIMENT_TASK,159,149,1,2,5176,2,60000,0,588,6,0,0,2,0,1,3
159,1,MAIN_EXPERIMENT_BLOCK,3,MAIN_EXPERIMENT_TASK,160,125,2,1,4237,2,24440,0,510,6,0,0,2,1,0,3
160,1,MAIN_EXPERIMENT_BLOCK,3,MAIN_EXPERIMENT_TASK,161,223,1,1,2681,1,real,0,508,6,0,0,2,1,1,3
161,1,MAIN_EXPERIMENT_BLOCK,3,MAIN_EXPERIMENT_TASK,162,173,1,1,2639,1,real,0,426,6,0,0,2,1,1,3
162,1,MAIN_EXPERIMENT_BLOCK,3,MAIN_EXPERIMENT_TASK,163,27,2,1,709,2,344,0,582,6,0,0,2,1,0,3
163,1,MAIN_EXPERIMENT_BLOCK,3,MAIN_EXPERIMENT_TASK,164,153,1,2,1500,2,60000,0,478,6,0,0,2,0,1,3
164,1,MAIN_EXPERIMENT_BLOCK,3,MAIN_EXPERIMENT_TASK,165,88,2,1,3256,2,7954,0,470,6,0,0,2,1,0,3
165,1,MAIN_EXPERIMENT_BLOCK,3,MAIN_EXPERIMENT_TASK,166,28,2,1,706,2,344,0,561,6,0,0,2,1,0,3
166,1,MAIN_EXPERIMENT_BLOCK,3,MAIN_EXPERIMENT_TASK,167,47,2,1,1127,2,1055,0,444,6,0,0,2,1,0,3
167,1,MAIN_EXPERIMENT_BLOCK,3,MAIN_EXPERIMENT_TASK,168,151,1,2,1218,2,60000,0,476,6,0,0,2,0,1,3
168,1,MAIN_EXPERIMENT_BLOCK,3,MAIN_EXPERIMENT_TASK,169,160,2,1,1610,2,60000,0,533,6,0,0,2,1,0,3
169,1,MAIN_EXPERIMENT_BLOCK,3,MAIN_EXPERIMENT_TASK,170,67,2,1,2918,2,7954,0,584,6,0,0,2,1,0,3
170,1,MAIN_EXPERIMENT_BLOCK,3,MAIN_EXPERIMENT_TASK,171,70,2,1,1028,2,7954,0,528,6,0,0,2,1,0,3
171,1,MAIN_EXPERIMENT_BLOCK,3,MAIN_EXPERIMENT_TASK,172,109,2,1,1334,2,24440,0,548,6,0,0,2,1,0,3
172,1,MAIN_EXPERIMENT_BLOCK,3,MAIN_EXPERIMENT_TASK,173,229,1,1,1572,1,real,0,508,6,0,0,2,1,1,3
173,1,MAIN_EXPERIMENT_BLOCK,3,MAIN_EXPERIMENT_TASK,174,188,1,1,1861,1,real,0,600,6,0,0,2,1,1,3
174,1,MAIN_EXPERIMENT_BLOCK,3,MAIN_EXPERIMENT_TASK,175,147,2,1,3357,2,60000,0,462,6,0,0,2,1,0,3
175,1,MAIN_EXPERIMENT_BLOCK,3,MAIN_EXPERIMENT_TASK,176,180,1,1,1335,1,real,0,484,6,0,0,2,1,1,3
176,1,MAIN_EXPERIMENT_BLOCK,3,MAIN_EXPERIMENT_TASK,177,236,1,1,1168,1,real,0,440,6,0,0,2,1,1,3
177,1,MAIN_EXPERIMENT_BLOCK,3,MAIN_EXPERIMENT_TASK,178,34,2,1,784,2,1055,0,496,6,0,0,2,1,0,3
178,1,MAIN_EXPERIMENT_BLOCK,3,MAIN_EXPERIMENT_TASK,179,178,1,1,2903,1,real,0,436,6,0,0,2,1,1,3
179,1,MAIN_EXPERIMENT_BLOCK,3,MAIN_EXPERIMENT_TASK,180,140,1,2,1257,2,60000,0,465,6,0,0,2,0,1,3
180,1,MAIN_EXPERIMENT_BLOCK,3,MAIN_EXPERIMENT_TASK,181,152,1,2,1657,2,60000,0,527,6,0,0,2,0,1,3
181,1,MAIN_EXPERIMENT_BLOCK,3,MAIN_EXPERIMENT_TASK,182,9,2,1,594,2,344,0,539,6,0,0,2,1,0,3
182,1,MAIN_EXPERIMENT_BLOCK,3,MAIN_EXPERIMENT_TASK,183,146,2,1,2251,2,60000,0,501,6,0,0,2,1,0,3
183,1,MAIN_EXPERIMENT_BLOCK,3,MAIN_EXPERIMENT_TASK,184,158,2,1,1952,2,60000,0,575,6,0,0,2,1,0,3
184,1,MAIN_EXPERIMENT_BLOCK,3,MAIN_EXPERIMENT_TASK,185,96,2,1,866,2,7954,0,401,6,0,0,2,1,0,3
185,1,MAIN_EXPERIMENT_BLOCK,3,MAIN_EXPERIMENT_TASK,186,176,1,1,900,1,real,0,563,6,0,0,2,1,1,3
186,1,MAIN_EXPERIMENT_BLOCK,3,MAIN_EXPERIMENT_TASK,187,175,1,1,735,1,real,0,519,6,0,0,2,1,1,3
187,1,MAIN_EXPERIMENT_BLOCK,3,MAIN_EXPERIMENT_TASK,188,57,2,1,704,2,1055,0,489,6,0,0,2,1,0,3
188,1,MAIN_EXPERIMENT_BLOCK,3,MAIN_EXPERIMENT_TASK,189,136,1,2,1762,2,60000,0,406,6,0,0,2,0,1,3
189,1,MAIN_EXPERIMENT_BLOCK,3,MAIN_EXPERIMENT_TASK,190,60,2,1,691,2,1055,0,419,6,0,0,2,1,0,3
190,1,MAIN_EXPERIMENT_BLOCK,3,MAIN_EXPERIMENT_TASK,191,201,1,1,877,1,real,0,488,6,0,0,2,1,1,3
191,1,MAIN_EXPERIMENT_BLOCK,3,MAIN_EXPERIMENT_TASK,192,210,1,2,154184,1,real,0,412,6,0,0,2,0,1,3
192,1,MAIN_EXPERIMENT_BLOCK,3,MAIN_EXPERIMENT_TASK,193,24,2,1,666,2,344,0,532,6,0,0,2,1,0,3
193,1,MAIN_EXPERIMENT_BLOCK,3,MAIN_EXPERIMENT_TASK,194,226,1,1,3136,1,real,0,466,6,0,0,2,1,1,3
194,1,MAIN_EXPERIMENT_BLOCK,3,MAIN_EXPERIMENT_TASK,195,132,2,1,2101,2,60000,0,494,6,0,0,2,1,0,3
195,1,MAIN_EXPERIMENT_BLOCK,3,MAIN_EXPERIMENT_TASK,196,62,2,1,632,2,1055,0,528,6,0,0,2,1,0,3
196,1,MAIN_EXPERIMENT_BLOCK,3,MAIN_EXPERIMENT_TASK,197,2,2,1,519,2,344,0,574,6,0,0,2,1,0,3
197,1,MAIN_EXPERIMENT_BLOCK,3,MAIN_EXPERIMENT_TASK,198,66,2,1,1881,2,7954,0,441,6,0,0,2,1,0,3
198,1,MAIN_EXPERIMENT_BLOCK,3,MAIN_EXPERIMENT_TASK,199,179,1,1,943,1,real,0,529,6,0,0,2,1,1,3
199,1,MAIN_EXPERIMENT_BLOCK,3,MAIN_EXPERIMENT_TASK,200,222,1,1,1831,1,real,0,579,6,0,0,2,1,1,3
200,1,MAIN_EXPERIMENT_BLOCK,3,MAIN_EXPERIMENT_TASK,201,61,2,1,704,2,1055,0,543,6,0,0,2,1,0,3
201,1,MAIN_EXPERIMENT_BLOCK,3,MAIN_EXPERIMENT_TASK,202,227,1,1,1336,1,real,0,588,6,0,0,2,1,1,3
202,1,MAIN_EXPERIMENT_BLOCK,3,MAIN_EXPERIMENT_TASK,203,139,2,1,17485,2,60000,0,428,6,0,0,2,1,0,3
203,1,MAIN_EXPERIMENT_BLOCK,3,MAIN_EXPERIMENT_TASK,204,195,1,1,1265,1,real,0,406,6,0,0,2,1,1,3
204,1,MAIN_EXPERIMENT_BLOCK,3,MAIN_EXPERIMENT_TASK,205,126,2,1,1099,2,24440,0,499,6,0,0,2,1,0,3
205,1,MAIN_EXPERIMENT_BLOCK,3,MAIN_EXPERIMENT_TASK,206,168,1,1,886,1,real,0,570,6,0,0,2,1,1,3
206,1,MAIN_EXPERIMENT_BLOCK,3,MAIN_EXPERIMENT_TASK,207,120,2,1,1784,2,24440,0,466,6,0,0,2,1,0,3
207,1,MAIN_EXPERIMENT_BLOCK,3,MAIN_EXPERIMENT_TASK,208,81,2,1,1060,2,7954,0,554,6,0,0,2,1,0,3
208,1,MAIN_EXPERIMENT_BLOCK,3,MAIN_EXPERIMENT_TASK,209,98,2,1,2369,2,24440,0,427,6,0,0,2,1,0,3
209,1,MAIN_EXPERIMENT_BLOCK,3,MAIN_EXPERIMENT_TASK,210,16,2,1,641,2,344,0,594,6,0,0,2,1,0,3
210,1,MAIN_EXPERIMENT_BLOCK,3,MAIN_EXPERIMENT_TASK,211,217,1,1,1850,1,real,0,471,6,0,0,2,1,1,3
211,1,MAIN_EXPERIMENT_BLOCK,3,MAIN_EXPERIMENT_TASK,212,32,2,1,833,2,344,0,504,6,0,0,2,1,0,3
212,1,MAIN_EXPERIMENT_BLOCK,3,MAIN_EXPERIMENT_TASK,213,133,2,1,3016,2,60000,0,574,6,0,0,2,1,0,3
213,1,MAIN_EXPERIMENT_BLOCK,3,MAIN_EXPERIMENT_TASK,214,171,1,1,1287,1,real,0,465,6,0,0,2,1,1,3
214,1,MAIN_EXPERIMENT_BLOCK,3,MAIN_EXPERIMENT_TASK,215,177,1,1,871,1,real,0,522,6,0,0,2,1,1,3
215,1,MAIN_EXPERIMENT_BLOCK,3,MAIN_EXPERIMENT_TASK,216,14,2,1,590,2,344,0,501,6,0,0,2,1,0,3
216,1,MAIN_EXPERIMENT_BLOCK,3,MAIN_EXPERIMENT_TASK,217,231,2,2,3169,1,real,0,500,6,0,0,2,0,0,3
217,1,MAIN_EXPERIMENT_BLOCK,3,MAIN_EXPERIMENT_TASK,218,199,1,1,1566,1,real,0,560,6,0,0,2,1,1,3
218,1,MAIN_EXPERIMENT_BLOCK,3,MAIN_EXPERIMENT_TASK,219,119,2,1,986,2,24440,0,454,6,0,0,2,1,0,3
219,1,MAIN_EXPERIMENT_BLOCK,3,MAIN_EXPERIMENT_TASK,220,104,2,1,878,2,24440,0,422,6,0,0,2,1,0,3
220,1,MAIN_EXPERIMENT_BLOCK,3,MAIN_EXPERIMENT_TASK,221,94,2,1,1457,2,7954,0,431,6,0,0,2,1,0,3
221,1,MAIN_EXPERIMENT_BLOCK,3,MAIN_EXPERIMENT_TASK,222,74,2,1,887,2,7954,0,535,6,0,0,2,1,0,3
222,1,MAIN_EXPERIMENT_BLOCK,3,MAIN_EXPERIMENT_TASK,223,225,1,1,1916,1,real,0,457,6,0,0,2,1,1,3
223,1,MAIN_EXPERIMENT_BLOCK,3,MAIN_EXPERIMENT_TASK,224,216,1,1,2630,1,real,0,443,6,0,0,2,1,1,3
224,1,MAIN_EXPERIMENT_BLOCK,3,MAIN_EXPERIMENT_TASK,225,181,1,1,829,1,real,0,464,6,0,0,2,1,1,3
225,1,MAIN_EXPERIMENT_BLOCK,3,MAIN_EXPERIMENT_TASK,226,240,1,1,1623,1,real,0,534,6,0,0,2,1,1,3
226,1,MAIN_EXPERIMENT_BLOCK,3,MAIN_EXPERIMENT_TASK,227,232,2,2,6163,1,real,0,455,6,0,0,2,0,0,3
227,1,MAIN_EXPERIMENT_BLOCK,3,MAIN_EXPERIMENT_TASK,228,43,2,1,732,2,1055,0,538,6,0,0,2,1,0,3
228,1,MAIN_EXPERIMENT_BLOCK,3,MAIN_EXPERIMENT_TASK,229,212,1,1,1388,1,real,0,415,6,0,0,2,1,1,3
229,1,MAIN_EXPERIMENT_BLOCK,3,MAIN_EXPERIMENT_TASK,230,95,2,1,1027,2,7954,0,501,6,0,0,2,1,0,3
230,1,MAIN_EXPERIMENT_BLOCK,3,MAIN_EXPERIMENT_TASK,231,87,2,1,1218,2,7954,0,490,6,0,0,2,1,0,3
231,1,MAIN_EXPERIMENT_BLOCK,3,MAIN_EXPERIMENT_TASK,232,150,2,1,5135,2,60000,0,590,6,0,0,2,1,0,3
232,1,MAIN_EXPERIMENT_BLOCK,3,MAIN_EXPERIMENT_TASK,233,19,2,1,772,2,344,0,512,6,0,0,2,1,0,3
233,1,MAIN_EXPERIMENT_BLOCK,3,MAIN_EXPERIMENT_TASK,234,214,1,1,1263,1,real,0,528,6,0,0,2,1,1,3
234,1,MAIN_EXPERIMENT_BLOCK,3,MAIN_EXPERIMENT_TASK,235,238,1,1,1237,1,real,0,550,6,0,0,2,1,1,3
235,1,MAIN_EXPERIMENT_BLOCK,3,MAIN_EXPERIMENT_TASK,236,36,2,1,672,2,1055,0,424,6,0,0,2,1,0,3
236,1,MAIN_EXPERIMENT_BLOCK,3,MAIN_EXPERIMENT_TASK,237,97,2,1,2355,2,24440,0,440,6,0,0,2,1,0,3
237,1,MAIN_EXPERIMENT_BLOCK,3,MAIN_EXPERIMENT_TASK,238,112,2,1,6718,2,24440,0,541,6,0,0,2,1,0,3
238,1,MAIN_EXPERIMENT_BLOCK,3,MAIN_EXPERIMENT_TASK,239,186,1,1,1799,1,real,0,515,6,0,0,2,1,1,3
239,1,MAIN_EXPERIMENT_BLOCK,3,MAIN_EXPERIMENT_TASK,240,21,2,1,598,2,344,0,519,6,0,0,2,1,0,3
240,1,MAIN_EXPERIMENT_BLOCK,3,MAIN_EXPERIMENT_TASK,241,15,2,1,579,2,344,0,508,6,0,0,2,1,0,3
241,1,MAIN_EXPERIMENT_BLOCK,3,MAIN_EXPERIMENT_TASK,242,11,2,1,485,2,344,0,546,6,0,0,2,1,0,3
242,1,MAIN_EXPERIMENT_BLOCK,3,MAIN_EXPERIMENT_TASK,243,115,2,1,3251,2,24440,0,492,6,0,0,2,1,0,3
243,1,MAIN_EXPERIMENT_BLOCK,3,MAIN_EXPERIMENT_TASK,244,162,1,1,993,1,real,0,483,6,0,0,2,1,1,3
244,1,MAIN_EXPERIMENT_BLOCK,3,MAIN_EXPERIMENT_TASK,245,22,2,1,616,2,344,0,493,6,0,0,2,1,0,3
245,1,MAIN_EXPERIMENT_BLOCK,3,MAIN_EXPERIMENT_TASK,246,113,2,1,3995,2,24440,0,447,6,0,0,2,1,0,3
246,1,MAIN_EXPERIMENT_BLOCK,3,MAIN_EXPERIMENT_TASK,247,102,2,1,811,2,24440,0,479,6,0,0,2,1,0,3
247,1,MAIN_EXPERIMENT_BLOCK,3,MAIN_EXPERIMENT_TASK,248,49,2,1,757,2,1055,0,513,6,0,0,2,1,0,3
248,1,MAIN_EXPERIMENT_BLOCK,3,MAIN_EXPERIMENT_TASK,249,103,2,1,719,2,24440,0,407,6,0,0,2,1,0,3
249,1,MAIN_EXPERIMENT_BLOCK,3,MAIN_EXPERIMENT_TASK,250,105,2,1,2353,2,24440,0,530,6,0,0,2,1,0,3
250,1,MAIN_EXPERIMENT_BLOCK,3,MAIN_EXPERIMENT_TASK,251,129,1,2,1236,2,60000,0,437,6,0,0,2,0,1,3
251,1,MAIN_EXPERIMENT_BLOCK,3,MAIN_EXPERIMENT_TASK,252,6,2,1,563,2,344,0,559,6,0,0,2,1,0,3
252,1,MAIN_EXPERIMENT_BLOCK,3,MAIN_EXPERIMENT_TASK,253,233,1,1,884,1,real,0,591,6,0,0,2,1,1,3
253,1,MAIN_EXPERIMENT_BLOCK,3,MAIN_EXPERIMENT_TASK,254,190,1,1,934,1,real,0,446,6,0,0,2,1,1,3
254,1,MAIN_EXPERIMENT_BLOCK,3,MAIN_EXPERIMENT_TASK,255,224,1,1,742,1,real,0,438,6,0,0,2,1,1,3
255,1,MAIN_EXPERIMENT_BLOCK,3,MAIN_EXPERIMENT_TASK,256,1,2,1,611,2,344,0,470,6,0,0,2,1,0,3
256,1,MAIN_EXPERIMENT_BLOCK,3,MAIN_EXPERIMENT_TASK,257,30,2,1,670,2,344,0,451,6,0,0,2,1,0,3
257,1,MAIN_EXPERIMENT_BLOCK,3,MAIN_EXPERIMENT_TASK,258,161,1,1,2196,1,real,0,420,6,0,0,2,1,1,3
258,1,MAIN_EXPERIMENT_BLOCK,3,MAIN_EXPERIMENT_TASK,259,72,2,1,1142,2,7954,0,416,6,0,0,2,1,0,3
259,1,MAIN_EXPERIMENT_BLOCK,3,MAIN_EXPERIMENT_TASK,260,206,1,1,1079,1,real,0,413,6,0,0,2,1,1,3
260,1,MAIN_EXPERIMENT_BLOCK,3,MAIN_EXPERIMENT_TASK,261,35,2,1,576,2,1055,0,496,6,0,0,2,1,0,3
261,1,MAIN_EXPERIMENT_BLOCK,3,MAIN_EXPERIMENT_TASK,262,143,2,1,4200,2,60000,0,455,6,0,0,2,1,0,3
262,1,MAIN_EXPERIMENT_BLOCK,3,MAIN_EXPERIMENT_TASK,263,166,1,1,804,1,real,0,565,6,0,0,2,1,1,3
263,1,MAIN_EXPERIMENT_BLOCK,3,MAIN_EXPERIMENT_TASK,264,106,2,1,3826,2,24440,0,415,6,0,0,2,1,0,3
264,1,MAIN_EXPERIMENT_BLOCK,3,MAIN_EXPERIMENT_TASK,265,18,2,1,617,2,344,0,432,6,0,0,2,1,0,3
265,1,MAIN_EXPERIMENT_BLOCK,3,MAIN_EXPERIMENT_TASK,266,33,2,1,992,2,1055,0,576,6,0,0,2,1,0,3
266,1,MAIN_EXPERIMENT_BLOCK,3,MAIN_EXPERIMENT_TASK,267,76,2,1,4974,2,7954,0,557,6,0,0,2,1,0,3
267,1,MAIN_EXPERIMENT_BLOCK,3,MAIN_EXPERIMENT_TASK,268,46,2,1,707,2,1055,0,561,6,0,0,2,1,0,3
268,1,MAIN_EXPERIMENT_BLOCK,3,MAIN_EXPERIMENT_TASK,269,159,1,2,999,2,60000,0,488,6,0,0,2,0,1,3
269,1,MAIN_EXPERIMENT_BLOCK,3,MAIN_EXPERIMENT_TASK,270,79,2,1,5807,2,7954,0,484,6,0,0,2,1,0,3
270,1,RATING_BLOCK,4,RATING_TASK,271,11,0,0,0,0,7954,0,0,2,3626,1,2,2,2,3
271,1,RATING_BLOCK,4,RATING_TASK,272,16,0,0,0,0,24440,0,0,2,5368,1,2,2,2,3
272,1,RATING_BLOCK,4,RATING_TASK,273,27,0,0,0,0,real,0,0,5,3999,1,2,2,2,3
273,1,RATING_BLOCK,4,RATING_TASK,274,24,0,0,0,0,60000,0,0,2,6013,1,2,2,2,3
274,1,RATING_BLOCK,4,RATING_TASK,275,8,0,0,0,0,1055,0,0,1,1365,1,2,2,2,3
275,1,RATING_BLOCK,4,RATING_TASK,276,25,0,0,0,0,60000,0,0,5,1882,1,2,2,2,3
276,1,RATING_BLOCK,4,RATING_TASK,277,23,0,0,0,0,60000,0,0,3,5628,1,2,2,2,3
277,1,RATING_BLOCK,4,RATING_TASK,278,5,0,0,0,0,344,0,0,1,1117,1,2,2,2,3
278,1,RATING_BLOCK,4,RATING_TASK,279,18,0,0,0,0,24440,0,0,2,3351,1,2,2,2,3
279,1,RATING_BLOCK,4,RATING_TASK,280,22,0,0,0,0,60000,0,0,5,2823,1,2,2,2,3
280,1,RATING_BLOCK,4,RATING_TASK,281,21,0,0,0,0,60000,0,0,4,5099,1,2,2,2,3
281,1,RATING_BLOCK,4,RATING_TASK,282,26,0,0,0,0,real,0,0,5,1477,1,2,2,2,3
282,1,RATING_BLOCK,4,RATING_TASK,283,12,0,0,0,0,7954,0,0,1,3277,1,2,2,2,3
283,1,RATING_BLOCK,4,RATING_TASK,284,17,0,0,0,0,24440,0,0,2,3070,1,2,2,2,3
284,1,RATING_BLOCK,4,RATING_TASK,285,2,0,0,0,0,344,0,0,1,1107,1,2,2,2,3
285,1,RATING_BLOCK,4,RATING_TASK,286,30,0,0,0,0,real,0,0,5,1884,1,2,2,2,3
286,1,RATING_BLOCK,4,RATING_TASK,287,28,0,0,0,0,real,0,0,5,1388,1,2,2,2,3
287,1,RATING_BLOCK,4,RATING_TASK,288,15,0,0,0,0,7954,0,0,2,2770,1,2,2,2,3
288,1,RATING_BLOCK,4,RATING_TASK,289,4,0,0,0,0,344,0,0,1,1095,1,2,2,2,3
289,1,RATING_BLOCK,4,RATING_TASK,290,7,0,0,0,0,1055,0,0,2,1763,1,2,2,2,3
290,1,RATING_BLOCK,4,RATING_TASK,291,9,0,0,0,0,1055,0,0,2,1003,1,2,2,2,3
291,1,RATING_BLOCK,4,RATING_TASK,292,20,0,0,0,0,24440,0,0,1,2699,1,2,2,2,3
292,1,RATING_BLOCK,4,RATING_TASK,293,1,0,0,0,0,344,0,0,1,811,1,2,2,2,3
293,1,RATING_BLOCK,4,RATING_TASK,294,6,0,0,0,0,1055,0,0,1,2311,1,2,2,2,3
294,1,RATING_BLOCK,4,RATING_TASK,295,14,0,0,0,0,7954,0,0,3,9865,1,2,2,2,3
295,1,RATING_BLOCK,4,RATING_TASK,296,10,0,0,0,0,1055,0,0,2,2206,1,2,2,2,3
296,1,RATING_BLOCK,4,RATING_TASK,297,3,0,0,0,0,344,0,0,1,1515,1,2,2,2,3
297,1,RATING_BLOCK,4,RATING_TASK,298,13,0,0,0,0,7954,0,0,4,3975,1,2,2,2,3
298,1,RATING_BLOCK,4,RATING_TASK,299,19,0,0,0,0,24440,0,0,5,3937,1,2,2,2,3
299,1,RATING_BLOCK,4,RATING_TASK,300,29,0,0,0,0,real,0,0,5,1304,1,2,2,2,3
0,2,TRAINING_BLOCK,2,TRAINING_TASK,1,25,1,1,2801,1,real,1,559,6,0,0,3,1,1,3
1,2,TRAINING_BLOCK,2,TRAINING_TASK,2,14,2,1,1632,2,24440,1,559,6,0,0,3,1,0,3
2,2,TRAINING_BLOCK,2,TRAINING_TASK,3,2,2,1,782,2,344,1,552,6,0,0,3,1,0,3
3,2,TRAINING_BLOCK,2,TRAINING_TASK,4,10,2,1,1126,2,7954,1,568,6,0,0,3,1,0,3
4,2,TRAINING_BLOCK,2,TRAINING_TASK,5,30,1,1,1800,1,real,1,571,6,0,0,3,1,1,3
5,2,TRAINING_BLOCK,2,TRAINING_TASK,6,5,2,1,810,2,1055,1,492,6,0,0,3,1,0,3
6,2,TRAINING_BLOCK,2,TRAINING_TASK,7,24,2,2,3199,1,real,1,573,6,0,0,3,0,0,3
7,2,TRAINING_BLOCK,2,TRAINING_TASK,8,9,2,1,1044,2,7954,1,569,6,0,0,3,1,0,3
8,2,TRAINING_BLOCK,2,TRAINING_TASK,9,6,2,1,624,2,1055,1,517,6,0,0,3,1,0,3
9,2,TRAINING_BLOCK,2,TRAINING_TASK,10,11,2,1,1592,2,7954,1,522,6,0,0,3,1,0,3
10,2,TRAINING_BLOCK,2,TRAINING_TASK,11,28,1,1,1316,1,real,1,528,6,0,0,3,1,1,3
11,2,TRAINING_BLOCK,2,TRAINING_TASK,12,21,1,1,2885,1,real,1,513,6,0,0,3,1,1,3
12,2,TRAINING_BLOCK,2,TRAINING_TASK,13,15,2,1,1744,2,24440,1,424,6,0,0,3,1,0,3
13,2,TRAINING_BLOCK,2,TRAINING_TASK,14,27,1,1,1517,1,real,1,455,6,0,0,3,1,1,3
14,2,TRAINING_BLOCK,2,TRAINING_TASK,15,12,2,1,897,2,7954,1,552,6,0,0,3,1,0,3
15,2,TRAINING_BLOCK,2,TRAINING_TASK,16,19,1,2,1698,2,60000,1,492,6,0,0,3,0,1,3
16,2,TRAINING_BLOCK,2,TRAINING_TASK,17,29,1,1,950,1,real,1,470,6,0,0,3,1,1,3
17,2,TRAINING_BLOCK,2,TRAINING_TASK,18,20,1,2,4593,2,60000,1,548,6,0,0,3,0,1,3
18,2,TRAINING_BLOCK,2,TRAINING_TASK,19,23,1,1,1051,1,real,1,514,6,0,0,3,1,1,3
19,2,TRAINING_BLOCK,2,TRAINING_TASK,20,1,2,1,782,2,344,1,527,6,0,0,3,1,0,3
20,2,TRAINING_BLOCK,2,TRAINING_TASK,21,13,2,1,1798,2,24440,1,576,6,0,0,3,1,0,3
21,2,TRAINING_BLOCK,2,TRAINING_TASK,22,22,1,1,1139,1,real,1,589,6,0,0,3,1,1,3
22,2,TRAINING_BLOCK,2,TRAINING_TASK,23,26,2,2,3223,1,real,1,429,6,0,0,3,0,0,3
23,2,TRAINING_BLOCK,2,TRAINING_TASK,24,18,2,1,2660,2,60000,1,509,6,0,0,3,1,0,3
24,2,TRAINING_BLOCK,2,TRAINING_TASK,25,4,2,1,595,2,344,1,523,6,0,0,3,1,0,3
25,2,TRAINING_BLOCK,2,TRAINING_TASK,26,8,2,1,616,2,1055,1,430,6,0,0,3,1,0,3
26,2,TRAINING_BLOCK,2,TRAINING_TASK,27,16,2,1,1152,2,24440,1,578,6,0,0,3,1,0,3
27,2,TRAINING_BLOCK,2,TRAINING_TASK,28,17,2,1,1035,2,60000,1,528,6,0,0,3,1,0,3
28,2,TRAINING_BLOCK,2,TRAINING_TASK,29,7,2,1,544,2,1055,1,594,6,0,0,3,1,0,3
29,2,TRAINING_BLOCK,2,TRAINING_TASK,30,3,2,1,537,2,344,1,574,6,0,0,3,1,0,3
30,2,RATING_BLOCK,3,RATING_TASK,31,8,0,0,0,0,1055,0,0,1,2108,1,3,2,2,3
31,2,RATING_BLOCK,3,RATING_TASK,32,2,0,0,0,0,344,0,0,1,1229,1,3,2,2,3
32,2,RATING_BLOCK,3,RATING_TASK,33,4,0,0,0,0,344,0,0,1,841,1,3,2,2,3
33,2,RATING_BLOCK,3,RATING_TASK,34,19,0,0,0,0,24440,0,0,2,2884,1,3,2,2,3
34,2,RATING_BLOCK,3,RATING_TASK,35,21,0,0,0,0,60000,0,0,2,3978,1,3,2,2,3
35,2,RATING_BLOCK,3,RATING_TASK,36,27,0,0,0,0,real,0,0,3,2336,1,3,2,2,3
36,2,RATING_BLOCK,3,RATING_TASK,37,7,0,0,0,0,1055,0,0,1,1712,1,3,2,2,3
37,2,RATING_BLOCK,3,RATING_TASK,38,28,0,0,0,0,real,0,0,5,1953,1,3,2,2,3
38,2,RATING_BLOCK,3,RATING_TASK,39,6,0,0,0,0,1055,0,0,1,2111,1,3,2,2,3
39,2,RATING_BLOCK,3,RATING_TASK,40,13,0,0,0,0,7954,0,0,2,2951,1,3,2,2,3
40,2,RATING_BLOCK,3,RATING_TASK,41,20,0,0,0,0,24440,0,0,2,3725,1,3,2,2,3
41,2,RATING_BLOCK,3,RATING_TASK,42,26,0,0,0,0,real,0,0,4,3168,1,3,2,2,3
42,2,RATING_BLOCK,3,RATING_TASK,43,14,0,0,0,0,7954,0,0,1,1495,1,3,2,2,3
43,2,RATING_BLOCK,3,RATING_TASK,44,17,0,0,0,0,24440,0,0,2,3925,1,3,2,2,3
44,2,RATING_BLOCK,3,RATING_TASK,45,3,0,0,0,0,344,0,0,1,979,1,3,2,2,3
45,2,RATING_BLOCK,3,RATING_TASK,46,29,0,0,0,0,real,0,0,5,2014,1,3,2,2,3
46,2,RATING_BLOCK,3,RATING_TASK,47,23,0,0,0,0,60000,0,0,2,5523,1,3,2,2,3
47,2,RATING_BLOCK,3,RATING_TASK,48,16,0,0,0,0,24440,0,0,1,2044,1,3,2,2,3
48,2,RATING_BLOCK,3,RATING_TASK,49,11,0,0,0,0,7954,0,0,1,1226,1,3,2,2,3
49,2,RATING_BLOCK,3,RATING_TASK,50,22,0,0,0,0,60000,0,0,2,1691,1,3,2,2,3
50,2,RATING_BLOCK,3,RATING_TASK,51,25,0,0,0,0,60000,0,0,2,3964,1,3,2,2,3
51,2,RATING_BLOCK,3,RATING_TASK,52,30,0,0,0,0,real,0,0,5,2666,1,3,2,2,3
52,2,RATING_BLOCK,3,RATING_TASK,53,10,0,0,0,0,1055,0,0,1,1908,1,3,2,2,3
53,2,RATING_BLOCK,3,RATING_TASK,54,24,0,0,0,0,60000,0,0,2,2831,1,3,2,2,3
54,2,RATING_BLOCK,3,RATING_TASK,55,5,0,0,0,0,344,0,0,1,955,1,3,2,2,3
55,2,RATING_BLOCK,3,RATING_TASK,56,12,0,0,0,0,7954,0,0,2,1721,1,3,2,2,3
56,2,RATING_BLOCK,3,RATING_TASK,57,18,0,0,0,0,24440,0,0,2,1751,1,3,2,2,3
57,2,RATING_BLOCK,3,RATING_TASK,58,9,0,0,0,0,1055,0,0,2,2537,1,3,2,2,3
58,2,RATING_BLOCK,3,RATING_TASK,59,1,0,0,0,0,344,0,0,1,1279,1,3,2,2,3
59,2,RATING_BLOCK,3,RATING_TASK,60,15,0,0,0,0,7954,0,0,2,2615,1,3,2,2,3
60,2,MAIN_EXPERIMENT_BLOCK,4,MAIN_EXPERIMENT_TASK,61,73,2,1,2820,2,7954,0,441,6,0,0,3,1,0,3
61,2,MAIN_EXPERIMENT_BLOCK,4,MAIN_EXPERIMENT_TASK,62,128,2,1,1100,2,24440,0,518,6,0,0,3,1,0,3
62,2,MAIN_EXPERIMENT_BLOCK,4,MAIN_EXPERIMENT_TASK,63,193,1,1,905,1,real,0,590,6,0,0,3,1,1,3
63,2,MAIN_EXPERIMENT_BLOCK,4,MAIN_EXPERIMENT_TASK,64,101,2,1,4216,2,24440,0,526,6,0,0,3,1,0,3
64,2,MAIN_EXPERIMENT_BLOCK,4,MAIN_EXPERIMENT_TASK,65,192,1,1,676,1,real,0,495,6,0,0,3,1,1,3
65,2,MAIN_EXPERIMENT_BLOCK,4,MAIN_EXPERIMENT_TASK,66,174,1,1,759,1,real,0,559,6,0,0,3,1,1,3
66,2,MAIN_EXPERIMENT_BLOCK,4,MAIN_EXPERIMENT_TASK,67,89,2,1,847,2,7954,0,447,6,0,0,3,1,0,3
67,2,MAIN_EXPERIMENT_BLOCK,4,MAIN_EXPERIMENT_TASK,68,2,2,1,554,2,344,0,580,6,0,0,3,1,0,3
68,2,MAIN_EXPERIMENT_BLOCK,4,MAIN_EXPERIMENT_TASK,69,16,2,1,457,2,344,0,509,6,0,0,3,1,0,3
69,2,MAIN_EXPERIMENT_BLOCK,4,MAIN_EXPERIMENT_TASK,70,165,1,1,1076,1,real,0,447,6,0,0,3,1,1,3
70,2,MAIN_EXPERIMENT_BLOCK,4,MAIN_EXPERIMENT_TASK,71,197,1,1,751,1,real,0,524,6,0,0,3,1,1,3
71,2,MAIN_EXPERIMENT_BLOCK,4,MAIN_EXPERIMENT_TASK,72,237,1,1,3957,1,real,0,567,6,0,0,3,1,1,3
72,2,MAIN_EXPERIMENT_BLOCK,4,MAIN_EXPERIMENT_TASK,73,110,2,1,2549,2,24440,0,438,6,0,0,3,1,0,3
73,2,MAIN_EXPERIMENT_BLOCK,4,MAIN_EXPERIMENT_TASK,74,143,2,1,4058,2,60000,0,485,6,0,0,3,1,0,3
74,2,MAIN_EXPERIMENT_BLOCK,4,MAIN_EXPERIMENT_TASK,75,10,2,1,940,2,344,0,477,6,0,0,3,1,0,3
75,2,MAIN_EXPERIMENT_BLOCK,4,MAIN_EXPERIMENT_TASK,76,189,2,2,4097,1,real,0,581,6,0,0,3,0,0,3
76,2,MAIN_EXPERIMENT_BLOCK,4,MAIN_EXPERIMENT_TASK,77,65,2,1,894,2,7954,0,424,6,0,0,3,1,0,3
77,2,MAIN_EXPERIMENT_BLOCK,4,MAIN_EXPERIMENT_TASK,78,88,2,1,1081,2,7954,0,477,6,0,0,3,1,0,3
78,2,MAIN_EXPERIMENT_BLOCK,4,MAIN_EXPERIMENT_TASK,79,62,2,1,521,2,1055,0,587,6,0,0,3,1,0,3
79,2,MAIN_EXPERIMENT_BLOCK,4,MAIN_EXPERIMENT_TASK,80,72,2,1,3083,2,7954,0,580,6,0,0,3,1,0,3
80,2,MAIN_EXPERIMENT_BLOCK,4,MAIN_EXPERIMENT_TASK,81,93,2,1,1336,2,7954,0,450,6,0,0,3,1,0,3
81,2,MAIN_EXPERIMENT_BLOCK,4,MAIN_EXPERIMENT_TASK,82,187,1,1,4183,1,real,0,588,6,0,0,3,1,1,3
82,2,MAIN_EXPERIMENT_BLOCK,4,MAIN_EXPERIMENT_TASK,83,131,2,1,1311,2,60000,0,538,6,0,0,3,1,0,3
83,2,MAIN_EXPERIMENT_BLOCK,4,MAIN_EXPERIMENT_TASK,84,107,2,1,1519,2,24440,0,561,6,0,0,3,1,0,3
84,2,MAIN_EXPERIMENT_BLOCK,4,MAIN_EXPERIMENT_TASK,85,221,1,1,939,1,real,0,414,6,0,0,3,1,1,3
85,2,MAIN_EXPERIMENT_BLOCK,4,MAIN_EXPERIMENT_TASK,86,92,2,1,1465,2,7954,0,507,6,0,0,3,1,0,3
86,2,MAIN_EXPERIMENT_BLOCK,4,MAIN_EXPERIMENT_TASK,87,40,2,1,4319,2,1055,0,579,6,0,0,3,1,0,3
87,2,MAIN_EXPERIMENT_BLOCK,4,MAIN_EXPERIMENT_TASK,88,141,2,1,4985,2,60000,0,541,6,0,0,3,1,0,3
88,2,MAIN_EXPERIMENT_BLOCK,4,MAIN_EXPERIMENT_TASK,89,82,2,1,617,2,7954,0,579,6,0,0,3,1,0,3
89,2,MAIN_EXPERIMENT_BLOCK,4,MAIN_EXPERIMENT_TASK,90,175,2,2,3371,1,real,0,568,6,0,0,3,0,0,3
90,2,MAIN_EXPERIMENT_BLOCK,4,MAIN_EXPERIMENT_TASK,91,146,2,1,1376,2,60000,0,436,6,0,0,3,1,0,3
91,2,MAIN_EXPERIMENT_BLOCK,4,MAIN_EXPERIMENT_TASK,92,185,1,1,2505,1,real,0,472,6,0,0,3,1,1,3
92,2,MAIN_EXPERIMENT_BLOCK,4,MAIN_EXPERIMENT_TASK,93,166,1,1,1294,1,real,0,429,6,0,0,3,1,1,3
93,2,MAIN_EXPERIMENT_BLOCK,4,MAIN_EXPERIMENT_TASK,94,14,2,1,556,2,344,0,428,6,0,0,3,1,0,3
94,2,MAIN_EXPERIMENT_BLOCK,4,MAIN_EXPERIMENT_TASK,95,226,2,2,3556,1,real,0,482,6,0,0,3,0,0,3
95,2,MAIN_EXPERIMENT_BLOCK,4,MAIN_EXPERIMENT_TASK,96,13,2,1,677,2,344,0,529,6,0,0,3,1,0,3
96,2,MAIN_EXPERIMENT_BLOCK,4,MAIN_EXPERIMENT_TASK,97,33,2,1,2170,2,1055,0,473,6,0,0,3,1,0,3
97,2,MAIN_EXPERIMENT_BLOCK,4,MAIN_EXPERIMENT_TASK,98,172,2,2,4717,1,real,0,479,6,0,0,3,0,0,3
98,2,MAIN_EXPERIMENT_BLOCK,4,MAIN_EXPERIMENT_TASK,99,34,2,1,745,2,1055,0,547,6,0,0,3,1,0,3
99,2,MAIN_EXPERIMENT_BLOCK,4,MAIN_EXPERIMENT_TASK,100,90,2,1,1080,2,7954,0,593,6,0,0,3,1,0,3
100,2,MAIN_EXPERIMENT_BLOCK,4,MAIN_EXPERIMENT_TASK,101,216,2,2,4747,1,real,0,572,6,0,0,3,0,0,3
101,2,MAIN_EXPERIMENT_BLOCK,4,MAIN_EXPERIMENT_TASK,102,81,2,1,952,2,7954,0,402,6,0,0,3,1,0,3
102,2,MAIN_EXPERIMENT_BLOCK,4,MAIN_EXPERIMENT_TASK,103,97,2,1,1499,2,24440,0,585,6,0,0,3,1,0,3
103,2,MAIN_EXPERIMENT_BLOCK,4,MAIN_EXPERIMENT_TASK,104,196,2,2,3613,1,real,0,457,6,0,0,3,0,0,3
104,2,MAIN_EXPERIMENT_BLOCK,4,MAIN_EXPERIMENT_TASK,105,132,2,1,3464,2,60000,0,532,6,0,0,3,1,0,3
105,2,MAIN_EXPERIMENT_BLOCK,4,MAIN_EXPERIMENT_TASK,106,234,1,1,4368,1,real,0,588,6,0,0,3,1,1,3
106,2,MAIN_EXPERIMENT_BLOCK,4,MAIN_EXPERIMENT_TASK,107,49,2,1,844,2,1055,0,599,6,0,0,3,1,0,3
107,2,MAIN_EXPERIMENT_BLOCK,4,MAIN_EXPERIMENT_TASK,108,59,2,1,1317,2,1055,0,590,6,0,0,3,1,0,3
108,2,MAIN_EXPERIMENT_BLOCK,4,MAIN_EXPERIMENT_TASK,109,80,2,1,5486,2,7954,0,469,6,0,0,3,1,0,3
109,2,MAIN_EXPERIMENT_BLOCK,4,MAIN_EXPERIMENT_TASK,110,109,2,1,896,2,24440,0,501,6,0,0,3,1,0,3
110,2,MAIN_EXPERIMENT_BLOCK,4,MAIN_EXPERIMENT_TASK,111,154,2,1,1882,2,60000,0,455,6,0,0,3,1,0,3
111,2,MAIN_EXPERIMENT_BLOCK,4,MAIN_EXPERIMENT_TASK,112,45,2,1,649,2,1055,0,588,6,0,0,3,1,0,3
112,2,MAIN_EXPERIMENT_BLOCK,4,MAIN_EXPERIMENT_TASK,113,83,2,1,825,2,7954,0,422,6,0,0,3,1,0,3
113,2,MAIN_EXPERIMENT_BLOCK,4,MAIN_EXPERIMENT_TASK,114,184,1,1,983,1,real,0,589,6,0,0,3,1,1,3
114,2,MAIN_EXPERIMENT_BLOCK,4,MAIN_EXPERIMENT_TASK,115,218,1,1,683,1,real,0,514,6,0,0,3,1,1,3
115,2,MAIN_EXPERIMENT_BLOCK,4,MAIN_EXPERIMENT_TASK,116,180,1,1,10128,1,real,0,470,6,0,0,3,1,1,3
116,2,MAIN_EXPERIMENT_BLOCK,4,MAIN_EXPERIMENT_TASK,117,140,1,2,3101,2,60000,0,489,6,0,0,3,0,1,3
117,2,MAIN_EXPERIMENT_BLOCK,4,MAIN_EXPERIMENT_TASK,118,84,2,1,1316,2,7954,0,564,6,0,0,3,1,0,3
118,2,MAIN_EXPERIMENT_BLOCK,4,MAIN_EXPERIMENT_TASK,119,96,2,1,3888,2,7954,0,537,6,0,0,3,1,0,3
119,2,MAIN_EXPERIMENT_BLOCK,4,MAIN_EXPERIMENT_TASK,120,91,2,1,1037,2,7954,0,542,6,0,0,3,1,0,3
120,2,MAIN_EXPERIMENT_BLOCK,4,MAIN_EXPERIMENT_TASK,121,209,1,1,2136,1,real,0,411,6,0,0,3,1,1,3
121,2,MAIN_EXPERIMENT_BLOCK,4,MAIN_EXPERIMENT_TASK,122,151,1,2,1831,2,60000,0,457,6,0,0,3,0,1,3
122,2,MAIN_EXPERIMENT_BLOCK,4,MAIN_EXPERIMENT_TASK,123,21,2,1,590,2,344,0,471,6,0,0,3,1,0,3
123,2,MAIN_EXPERIMENT_BLOCK,4,MAIN_EXPERIMENT_TASK,124,86,2,1,2210,2,7954,0,434,6,0,0,3,1,0,3
124,2,MAIN_EXPERIMENT_BLOCK,4,MAIN_EXPERIMENT_TASK,125,238,2,2,2008,1,real,0,483,6,0,0,3,0,0,3
125,2,MAIN_EXPERIMENT_BLOCK,4,MAIN_EXPERIMENT_TASK,126,232,1,1,1081,1,real,0,423,6,0,0,3,1,1,3
126,2,MAIN_EXPERIMENT_BLOCK,4,MAIN_EXPERIMENT_TASK,127,162,1,1,790,1,real,0,411,6,0,0,3,1,1,3
127,2,MAIN_EXPERIMENT_BLOCK,4,MAIN_EXPERIMENT_TASK,128,120,2,1,946,2,24440,0,591,6,0,0,3,1,0,3
128,2,MAIN_EXPERIMENT_BLOCK,4,MAIN_EXPERIMENT_TASK,129,135,1,2,1765,2,60000,0,566,6,0,0,3,0,1,3
129,2,MAIN_EXPERIMENT_BLOCK,4,MAIN_EXPERIMENT_TASK,130,139,2,1,2400,2,60000,0,562,6,0,0,3,1,0,3
130,2,MAIN_EXPERIMENT_BLOCK,4,MAIN_EXPERIMENT_TASK,131,127,2,1,4767,2,24440,0,567,6,0,0,3,1,0,3
131,2,MAIN_EXPERIMENT_BLOCK,4,MAIN_EXPERIMENT_TASK,132,181,1,1,1174,1,real,0,541,6,0,0,3,1,1,3
132,2,MAIN_EXPERIMENT_BLOCK,4,MAIN_EXPERIMENT_TASK,133,98,2,1,803,2,24440,0,406,6,0,0,3,1,0,3
133,2,MAIN_EXPERIMENT_BLOCK,4,MAIN_EXPERIMENT_TASK,134,124,2,1,976,2,24440,0,458,6,0,0,3,1,0,3
134,2,MAIN_EXPERIMENT_BLOCK,4,MAIN_EXPERIMENT_TASK,135,123,2,1,980,2,24440,0,495,6,0,0,3,1,0,3
135,2,MAIN_EXPERIMENT_BLOCK,4,MAIN_EXPERIMENT_TASK,136,26,2,1,614,2,344,0,461,6,0,0,3,1,0,3
136,2,MAIN_EXPERIMENT_BLOCK,4,MAIN_EXPERIMENT_TASK,137,194,2,2,6371,1,real,0,475,6,0,0,3,0,0,3
137,2,MAIN_EXPERIMENT_BLOCK,4,MAIN_EXPERIMENT_TASK,138,208,1,1,818,1,real,0,551,6,0,0,3,1,1,3
138,2,MAIN_EXPERIMENT_BLOCK,4,MAIN_EXPERIMENT_TASK,139,223,2,2,8306,1,real,0,463,6,0,0,3,0,0,3
139,2,MAIN_EXPERIMENT_BLOCK,4,MAIN_EXPERIMENT_TASK,140,43,2,1,606,2,1055,0,586,6,0,0,3,1,0,3
140,2,MAIN_EXPERIMENT_BLOCK,4,MAIN_EXPERIMENT_TASK,141,130,2,2,7707,2,60000,0,460,6,0,0,3,0,0,3
141,2,MAIN_EXPERIMENT_BLOCK,4,MAIN_EXPERIMENT_TASK,142,4,2,1,518,2,344,0,557,6,0,0,3,1,0,3
142,2,MAIN_EXPERIMENT_BLOCK,4,MAIN_EXPERIMENT_TASK,143,121,2,1,1052,2,24440,0,479,6,0,0,3,1,0,3
143,2,MAIN_EXPERIMENT_BLOCK,4,MAIN_EXPERIMENT_TASK,144,169,1,1,990,1,real,0,595,6,0,0,3,1,1,3
144,2,MAIN_EXPERIMENT_BLOCK,4,MAIN_EXPERIMENT_TASK,145,236,2,2,4676,1,real,0,446,6,0,0,3,0,0,3
145,2,MAIN_EXPERIMENT_BLOCK,4,MAIN_EXPERIMENT_TASK,146,230,1,1,1855,1,real,0,409,6,0,0,3,1,1,3
146,2,MAIN_EXPERIMENT_BLOCK,4,MAIN_EXPERIMENT_TASK,147,116,2,1,4952,2,24440,0,517,6,0,0,3,1,0,3
147,2,MAIN_EXPERIMENT_BLOCK,4,MAIN_EXPERIMENT_TASK,148,15,2,1,577,2,344,0,445,6,0,0,3,1,0,3
148,2,MAIN_EXPERIMENT_BLOCK,4,MAIN_EXPERIMENT_TASK,149,205,1,1,730,1,real,0,473,6,0,0,3,1,1,3
149,2,MAIN_EXPERIMENT_BLOCK,4,MAIN_EXPERIMENT_TASK,150,85,2,1,754,2,7954,0,464,6,0,0,3,1,0,3
150,2,MAIN_EXPERIMENT_BLOCK,4,MAIN_EXPERIMENT_TASK,151,220,2,2,4105,1,real,0,490,6,0,0,3,0,0,3
151,2,MAIN_EXPERIMENT_BLOCK,4,MAIN_EXPERIMENT_TASK,152,47,2,1,469,2,1055,0,420,6,0,0,3,1,0,3
152,2,MAIN_EXPERIMENT_BLOCK,4,MAIN_EXPERIMENT_TASK,153,235,2,2,4202,1,real,0,451,6,0,0,3,0,0,3
153,2,MAIN_EXPERIMENT_BLOCK,4,MAIN_EXPERIMENT_TASK,154,1,2,1,568,2,344,0,538,6,0,0,3,1,0,3
154,2,MAIN_EXPERIMENT_BLOCK,4,MAIN_EXPERIMENT_TASK,155,76,1,2,2575,2,7954,0,503,6,0,0,3,0,1,3
155,2,MAIN_EXPERIMENT_BLOCK,4,MAIN_EXPERIMENT_TASK,156,217,1,1,1212,1,real,0,468,6,0,0,3,1,1,3
156,2,MAIN_EXPERIMENT_BLOCK,4,MAIN_EXPERIMENT_TASK,157,67,2,1,4428,2,7954,0,528,6,0,0,3,1,0,3
157,2,MAIN_EXPERIMENT_BLOCK,4,MAIN_EXPERIMENT_TASK,158,106,2,1,6699,2,24440,0,407,6,0,0,3,1,0,3
158,2,MAIN_EXPERIMENT_BLOCK,4,MAIN_EXPERIMENT_TASK,159,114,2,1,522,2,24440,0,478,6,0,0,3,1,0,3
159,2,MAIN_EXPERIMENT_BLOCK,4,MAIN_EXPERIMENT_TASK,160,29,2,1,546,2,344,0,563,6,0,0,3,1,0,3
160,2,MAIN_EXPERIMENT_BLOCK,4,MAIN_EXPERIMENT_TASK,161,19,2,1,422,2,344,0,458,6,0,0,3,1,0,3
161,2,MAIN_EXPERIMENT_BLOCK,4,MAIN_EXPERIMENT_TASK,162,222,2,2,382,1,real,0,535,6,0,0,3,0,0,3
162,2,MAIN_EXPERIMENT_BLOCK,4,MAIN_EXPERIMENT_TASK,163,75,2,1,903,2,7954,0,487,6,0,0,3,1,0,3
163,2,MAIN_EXPERIMENT_BLOCK,4,MAIN_EXPERIMENT_TASK,164,112,2,1,1146,2,24440,0,506,6,0,0,3,1,0,3
164,2,MAIN_EXPERIMENT_BLOCK,4,MAIN_EXPERIMENT_TASK,165,138,2,1,6142,2,60000,0,555,6,0,0,3,1,0,3
165,2,MAIN_EXPERIMENT_BLOCK,4,MAIN_EXPERIMENT_TASK,166,231,1,1,1716,1,real,0,535,6,0,0,3,1,1,3
166,2,MAIN_EXPERIMENT_BLOCK,4,MAIN_EXPERIMENT_TASK,167,95,2,1,778,2,7954,0,567,6,0,0,3,1,0,3
167,2,MAIN_EXPERIMENT_BLOCK,4,MAIN_EXPERIMENT_TASK,168,63,2,1,574,2,1055,0,586,6,0,0,3,1,0,3
168,2,MAIN_EXPERIMENT_BLOCK,4,MAIN_EXPERIMENT_TASK,169,144,2,1,2373,2,60000,0,426,6,0,0,3,1,0,3
169,2,MAIN_EXPERIMENT_BLOCK,4,MAIN_EXPERIMENT_TASK,170,28,2,1,567,2,344,0,494,6,0,0,3,1,0,3
170,2,MAIN_EXPERIMENT_BLOCK,4,MAIN_EXPERIMENT_TASK,171,27,2,1,465,2,344,0,499,6,0,0,3,1,0,3
171,2,MAIN_EXPERIMENT_BLOCK,4,MAIN_EXPERIMENT_TASK,172,115,2,1,926,2,24440,0,516,6,0,0,3,1,0,3
172,2,MAIN_EXPERIMENT_BLOCK,4,MAIN_EXPERIMENT_TASK,173,7,2,1,525,2,344,0,435,6,0,0,3,1,0,3
173,2,MAIN_EXPERIMENT_BLOCK,4,MAIN_EXPERIMENT_TASK,174,204,1,1,1288,1,real,0,439,6,0,0,3,1,1,3
174,2,MAIN_EXPERIMENT_BLOCK,4,MAIN_EXPERIMENT_TASK,175,125,2,1,2853,2,24440,0,472,6,0,0,3,1,0,3
175,2,MAIN_EXPERIMENT_BLOCK,4,MAIN_EXPERIMENT_TASK,176,215,1,1,1029,1,real,0,501,6,0,0,3,1,1,3
176,2,MAIN_EXPERIMENT_BLOCK,4,MAIN_EXPERIMENT_TASK,177,102,2,1,2590,2,24440,0,581,6,0,0,3,1,0,3
177,2,MAIN_EXPERIMENT_BLOCK,4,MAIN_EXPERIMENT_TASK,178,54,2,1,480,2,1055,0,401,6,0,0,3,1,0,3
178,2,MAIN_EXPERIMENT_BLOCK,4,MAIN_EXPERIMENT_TASK,179,94,2,1,454,2,7954,0,504,6,0,0,3,1,0,3
179,2,MAIN_EXPERIMENT_BLOCK,4,MAIN_EXPERIMENT_TASK,180,44,2,1,416,2,1055,0,550,6,0,0,3,1,0,3
180,2,MAIN_EXPERIMENT_BLOCK,4,MAIN_EXPERIMENT_TASK,181,145,2,1,3210,2,60000,0,424,6,0,0,3,1,0,3
181,2,MAIN_EXPERIMENT_BLOCK,4,MAIN_EXPERIMENT_TASK,182,122,2,1,2416,2,24440,0,502,6,0,0,3,1,0,3
182,2,MAIN_EXPERIMENT_BLOCK,4,MAIN_EXPERIMENT_TASK,183,167,1,1,1596,1,real,0,480,6,0,0,3,1,1,3
183,2,MAIN_EXPERIMENT_BLOCK,4,MAIN_EXPERIMENT_TASK,184,70,2,1,1140,2,7954,0,405,6,0,0,3,1,0,3
184,2,MAIN_EXPERIMENT_BLOCK,4,MAIN_EXPERIMENT_TASK,185,113,2,1,1553,2,24440,0,446,6,0,0,3,1,0,3
185,2,MAIN_EXPERIMENT_BLOCK,4,MAIN_EXPERIMENT_TASK,186,71,2,1,3441,2,7954,0,517,6,0,0,3,1,0,3
186,2,MAIN_EXPERIMENT_BLOCK,4,MAIN_EXPERIMENT_TASK,187,210,1,1,4592,1,real,0,405,6,0,0,3,1,1,3
187,2,MAIN_EXPERIMENT_BLOCK,4,MAIN_EXPERIMENT_TASK,188,61,2,1,724,2,1055,0,483,6,0,0,3,1,0,3
188,2,MAIN_EXPERIMENT_BLOCK,4,MAIN_EXPERIMENT_TASK,189,161,1,1,2243,1,real,0,595,6,0,0,3,1,1,3
189,2,MAIN_EXPERIMENT_BLOCK,4,MAIN_EXPERIMENT_TASK,190,198,1,1,859,1,real,0,505,6,0,0,3,1,1,3
190,2,MAIN_EXPERIMENT_BLOCK,4,MAIN_EXPERIMENT_TASK,191,103,2,1,1711,2,24440,0,492,6,0,0,3,1,0,3
191,2,MAIN_EXPERIMENT_BLOCK,4,MAIN_EXPERIMENT_TASK,192,129,2,1,2237,2,60000,0,576,6,0,0,3,1,0,3
192,2,MAIN_EXPERIMENT_BLOCK,4,MAIN_EXPERIMENT_TASK,193,171,1,1,716,1,real,0,546,6,0,0,3,1,1,3
193,2,MAIN_EXPERIMENT_BLOCK,4,MAIN_EXPERIMENT_TASK,194,20,2,1,902,2,344,0,481,6,0,0,3,1,0,3
194,2,MAIN_EXPERIMENT_BLOCK,4,MAIN_EXPERIMENT_TASK,195,202,1,1,2776,1,real,0,501,6,0,0,3,1,1,3
195,2,MAIN_EXPERIMENT_BLOCK,4,MAIN_EXPERIMENT_TASK,196,211,1,1,2588,1,real,0,595,6,0,0,3,1,1,3
196,2,MAIN_EXPERIMENT_BLOCK,4,MAIN_EXPERIMENT_TASK,197,225,1,1,1371,1,real,0,444,6,0,0,3,1,1,3
197,2,MAIN_EXPERIMENT_BLOCK,4,MAIN_EXPERIMENT_TASK,198,108,2,1,874,2,24440,0,413,6,0,0,3,1,0,3
198,2,MAIN_EXPERIMENT_BLOCK,4,MAIN_EXPERIMENT_TASK,199,31,2,1,563,2,344,0,575,6,0,0,3,1,0,3
199,2,MAIN_EXPERIMENT_BLOCK,4,MAIN_EXPERIMENT_TASK,200,53,2,1,408,2,1055,0,435,6,0,0,3,1,0,3
200,2,MAIN_EXPERIMENT_BLOCK,4,MAIN_EXPERIMENT_TASK,201,78,2,1,592,2,7954,0,490,6,0,0,3,1,0,3
201,2,MAIN_EXPERIMENT_BLOCK,4,MAIN_EXPERIMENT_TASK,202,190,1,1,3783,1,real,0,521,6,0,0,3,1,1,3
202,2,MAIN_EXPERIMENT_BLOCK,4,MAIN_EXPERIMENT_TASK,203,50,2,1,805,2,1055,0,501,6,0,0,3,1,0,3
203,2,MAIN_EXPERIMENT_BLOCK,4,MAIN_EXPERIMENT_TASK,204,56,2,1,493,2,1055,0,444,6,0,0,3,1,0,3
204,2,MAIN_EXPERIMENT_BLOCK,4,MAIN_EXPERIMENT_TASK,205,8,2,1,409,2,344,0,410,6,0,0,3,1,0,3
205,2,MAIN_EXPERIMENT_BLOCK,4,MAIN_EXPERIMENT_TASK,206,11,2,1,413,2,344,0,535,6,0,0,3,1,0,3
206,2,MAIN_EXPERIMENT_BLOCK,4,MAIN_EXPERIMENT_TASK,207,117,2,1,383,2,24440,0,520,6,0,0,3,1,0,3
207,2,MAIN_EXPERIMENT_BLOCK,4,MAIN_EXPERIMENT_TASK,208,60,2,1,500,2,1055,0,566,6,0,0,3,1,0,3
208,2,MAIN_EXPERIMENT_BLOCK,4,MAIN_EXPERIMENT_TASK,209,200,2,2,11445,1,real,0,471,6,0,0,3,0,0,3
209,2,MAIN_EXPERIMENT_BLOCK,4,MAIN_EXPERIMENT_TASK,210,32,2,1,577,2,344,0,408,6,0,0,3,1,0,3
210,2,MAIN_EXPERIMENT_BLOCK,4,MAIN_EXPERIMENT_TASK,211,224,1,1,1183,1,real,0,553,6,0,0,3,1,1,3
211,2,MAIN_EXPERIMENT_BLOCK,4,MAIN_EXPERIMENT_TASK,212,23,2,1,575,2,344,0,420,6,0,0,3,1,0,3
212,2,MAIN_EXPERIMENT_BLOCK,4,MAIN_EXPERIMENT_TASK,213,136,2,1,1456,2,60000,0,454,6,0,0,3,1,0,3
213,2,MAIN_EXPERIMENT_BLOCK,4,MAIN_EXPERIMENT_TASK,214,104,2,1,568,2,24440,0,577,6,0,0,3,1,0,3
214,2,MAIN_EXPERIMENT_BLOCK,4,MAIN_EXPERIMENT_TASK,215,105,2,1,653,2,24440,0,416,6,0,0,3,1,0,3
215,2,MAIN_EXPERIMENT_BLOCK,4,MAIN_EXPERIMENT_TASK,216,69,2,1,1337,2,7954,0,452,6,0,0,3,1,0,3
216,2,MAIN_EXPERIMENT_BLOCK,4,MAIN_EXPERIMENT_TASK,217,30,2,1,516,2,344,0,593,6,0,0,3,1,0,3
217,2,MAIN_EXPERIMENT_BLOCK,4,MAIN_EXPERIMENT_TASK,218,35,2,1,476,2,1055,0,494,6,0,0,3,1,0,3
218,2,MAIN_EXPERIMENT_BLOCK,4,MAIN_EXPERIMENT_TASK,219,58,2,1,519,2,1055,0,573,6,0,0,3,1,0,3
219,2,MAIN_EXPERIMENT_BLOCK,4,MAIN_EXPERIMENT_TASK,220,158,2,1,1967,2,60000,0,455,6,0,0,3,1,0,3
220,2,MAIN_EXPERIMENT_BLOCK,4,MAIN_EXPERIMENT_TASK,221,79,2,1,674,2,7954,0,458,6,0,0,3,1,0,3
221,2,MAIN_EXPERIMENT_BLOCK,4,MAIN_EXPERIMENT_TASK,222,3,2,2,2235,2,344,0,530,6,0,0,3,0,0,3
222,2,MAIN_EXPERIMENT_BLOCK,4,MAIN_EXPERIMENT_TASK,223,219,1,1,902,1,real,0,558,6,0,0,3,1,1,3
223,2,MAIN_EXPERIMENT_BLOCK,4,MAIN_EXPERIMENT_TASK,224,168,1,1,759,1,real,0,467,6,0,0,3,1,1,3
224,2,MAIN_EXPERIMENT_BLOCK,4,MAIN_EXPERIMENT_TASK,225,177,2,2,4462,1,real,0,554,6,0,0,3,0,0,3
225,2,MAIN_EXPERIMENT_BLOCK,4,MAIN_EXPERIMENT_TASK,226,178,2,2,5131,1,real,0,505,6,0,0,3,0,0,3
226,2,MAIN_EXPERIMENT_BLOCK,4,MAIN_EXPERIMENT_TASK,227,39,2,1,679,2,1055,0,540,6,0,0,3,1,0,3
227,2,MAIN_EXPERIMENT_BLOCK,4,MAIN_EXPERIMENT_TASK,228,150,2,1,828,2,60000,0,524,6,0,0,3,1,0,3
228,2,MAIN_EXPERIMENT_BLOCK,4,MAIN_EXPERIMENT_TASK,229,188,2,2,4833,1,real,0,423,6,0,0,3,0,0,3
229,2,MAIN_EXPERIMENT_BLOCK,4,MAIN_EXPERIMENT_TASK,230,149,2,1,2714,2,60000,0,485,6,0,0,3,1,0,3
230,2,MAIN_EXPERIMENT_BLOCK,4,MAIN_EXPERIMENT_TASK,231,170,1,1,1753,1,real,0,472,6,0,0,3,1,1,3
231,2,MAIN_EXPERIMENT_BLOCK,4,MAIN_EXPERIMENT_TASK,232,126,2,1,584,2,24440,0,525,6,0,0,3,1,0,3
232,2,MAIN_EXPERIMENT_BLOCK,4,MAIN_EXPERIMENT_TASK,233,137,2,1,801,2,60000,0,429,6,0,0,3,1,0,3
233,2,MAIN_EXPERIMENT_BLOCK,4,MAIN_EXPERIMENT_TASK,234,152,2,1,786,2,60000,0,528,6,0,0,3,1,0,3
234,2,MAIN_EXPERIMENT_BLOCK,4,MAIN_EXPERIMENT_TASK,235,55,2,1,493,2,1055,0,529,6,0,0,3,1,0,3
235,2,MAIN_EXPERIMENT_BLOCK,4,MAIN_EXPERIMENT_TASK,236,195,2,2,1467,1,real,0,514,6,0,0,3,0,0,3
236,2,MAIN_EXPERIMENT_BLOCK,4,MAIN_EXPERIMENT_TASK,237,66,2,1,494,2,7954,0,457,6,0,0,3,1,0,3
237,2,MAIN_EXPERIMENT_BLOCK,4,MAIN_EXPERIMENT_TASK,238,77,2,1,549,2,7954,0,463,6,0,0,3,1,0,3
238,2,MAIN_EXPERIMENT_BLOCK,4,MAIN_EXPERIMENT_TASK,239,100,2,1,1006,2,24440,0,420,6,0,0,3,1,0,3
239,2,MAIN_EXPERIMENT_BLOCK,4,MAIN_EXPERIMENT_TASK,240,12,2,1,741,2,344,0,405,6,0,0,3,1,0,3
240,2,MAIN_EXPERIMENT_BLOCK,4,MAIN_EXPERIMENT_TASK,241,41,2,1,867,2,1055,0,504,6,0,0,3,1,0,3
241,2,MAIN_EXPERIMENT_BLOCK,4,MAIN_EXPERIMENT_TASK,242,119,2,1,2218,2,24440,0,534,6,0,0,3,1,0,3
242,2,MAIN_EXPERIMENT_BLOCK,4,MAIN_EXPERIMENT_TASK,243,87,2,1,867,2,7954,0,519,6,0,0,3,1,0,3
243,2,MAIN_EXPERIMENT_BLOCK,4,MAIN_EXPERIMENT_TASK,244,212,2,2,8786,1,real,0,440,6,0,0,3,0,0,3
244,2,MAIN_EXPERIMENT_BLOCK,4,MAIN_EXPERIMENT_TASK,245,5,2,1,494,2,344,0,414,6,0,0,3,1,0,3
245,2,MAIN_EXPERIMENT_BLOCK,4,MAIN_EXPERIMENT_TASK,246,51,2,1,417,2,1055,0,401,6,0,0,3,1,0,3
246,2,MAIN_EXPERIMENT_BLOCK,4,MAIN_EXPERIMENT_TASK,247,46,2,1,397,2,1055,0,408,6,0,0,3,1,0,3
247,2,MAIN_EXPERIMENT_BLOCK,4,MAIN_EXPERIMENT_TASK,248,18,2,1,652,2,344,0,569,6,0,0,3,1,0,3
248,2,MAIN_EXPERIMENT_BLOCK,4,MAIN_EXPERIMENT_TASK,249,164,2,2,5278,1,real,0,492,6,0,0,3,0,0,3
249,2,MAIN_EXPERIMENT_BLOCK,4,MAIN_EXPERIMENT_TASK,250,111,2,1,1934,2,24440,0,585,6,0,0,3,1,0,3
250,2,MAIN_EXPERIMENT_BLOCK,4,MAIN_EXPERIMENT_TASK,251,9,2,1,518,2,344,0,433,6,0,0,3,1,0,3
251,2,MAIN_EXPERIMENT_BLOCK,4,MAIN_EXPERIMENT_TASK,252,142,2,1,3528,2,60000,0,434,6,0,0,3,1,0,3
252,2,MAIN_EXPERIMENT_BLOCK,4,MAIN_EXPERIMENT_TASK,253,155,2,1,1299,2,60000,0,597,6,0,0,3,1,0,3
253,2,MAIN_EXPERIMENT_BLOCK,4,MAIN_EXPERIMENT_TASK,254,214,2,2,1028,1,real,0,407,6,0,0,3,0,0,3
254,2,MAIN_EXPERIMENT_BLOCK,4,MAIN_EXPERIMENT_TASK,255,153,2,1,889,2,60000,0,583,6,0,0,3,1,0,3
255,2,MAIN_EXPERIMENT_BLOCK,4,MAIN_EXPERIMENT_TASK,256,6,2,1,488,2,344,0,564,6,0,0,3,1,0,3
256,2,MAIN_EXPERIMENT_BLOCK,4,MAIN_EXPERIMENT_TASK,257,213,2,2,5131,1,real,0,487,6,0,0,3,0,0,3
257,2,MAIN_EXPERIMENT_BLOCK,4,MAIN_EXPERIMENT_TASK,258,203,1,1,919,1,real,0,585,6,0,0,3,1,1,3
258,2,MAIN_EXPERIMENT_BLOCK,4,MAIN_EXPERIMENT_TASK,259,160,2,1,1125,2,60000,0,472,6,0,0,3,1,0,3
259,2,MAIN_EXPERIMENT_BLOCK,4,MAIN_EXPERIMENT_TASK,260,156,2,1,1117,2,60000,0,412,6,0,0,3,1,0,3
260,2,MAIN_EXPERIMENT_BLOCK,4,MAIN_EXPERIMENT_TASK,261,186,1,1,2020,1,real,0,508,6,0,0,3,1,1,3
261,2,MAIN_EXPERIMENT_BLOCK,4,MAIN_EXPERIMENT_TASK,262,206,1,1,717,1,real,0,543,6,0,0,3,1,1,3
262,2,MAIN_EXPERIMENT_BLOCK,4,MAIN_EXPERIMENT_TASK,263,134,2,1,1022,2,60000,0,413,6,0,0,3,1,0,3
263,2,MAIN_EXPERIMENT_BLOCK,4,MAIN_EXPERIMENT_TASK,264,147,2,1,1531,2,60000,0,577,6,0,0,3,1,0,3
264,2,MAIN_EXPERIMENT_BLOCK,4,MAIN_EXPERIMENT_TASK,265,37,2,1,703,2,1055,0,474,6,0,0,3,1,0,3
265,2,MAIN_EXPERIMENT_BLOCK,4,MAIN_EXPERIMENT_TASK,266,182,2,2,3727,1,real,0,400,6,0,0,3,0,0,3
266,2,MAIN_EXPERIMENT_BLOCK,4,MAIN_EXPERIMENT_TASK,267,176,2,2,3832,1,real,0,508,6,0,0,3,0,0,3
267,2,MAIN_EXPERIMENT_BLOCK,4,MAIN_EXPERIMENT_TASK,268,159,2,1,1579,2,60000,0,508,6,0,0,3,1,0,3
268,2,MAIN_EXPERIMENT_BLOCK,4,MAIN_EXPERIMENT_TASK,269,240,2,2,2484,1,real,0,485,6,0,0,3,0,0,3
269,2,MAIN_EXPERIMENT_BLOCK,4,MAIN_EXPERIMENT_TASK,270,64,2,1,446,2,1055,0,596,6,0,0,3,1,0,3
270,2,MAIN_EXPERIMENT_BLOCK,4,MAIN_EXPERIMENT_TASK,271,133,2,1,745,2,60000,0,553,6,0,0,3,1,0,3
271,2,MAIN_EXPERIMENT_BLOCK,4,MAIN_EXPERIMENT_TASK,272,199,1,1,680,1,real,0,590,6,0,0,3,1,1,3
272,2,MAIN_EXPERIMENT_BLOCK,4,MAIN_EXPERIMENT_TASK,273,17,2,1,650,2,344,0,483,6,0,0,3,1,0,3
273,2,MAIN_EXPERIMENT_BLOCK,4,MAIN_EXPERIMENT_TASK,274,173,2,2,1260,1,real,0,415,6,0,0,3,0,0,3
274,2,MAIN_EXPERIMENT_BLOCK,4,MAIN_EXPERIMENT_TASK,275,48,2,1,3550,2,1055,0,467,6,0,0,3,1,0,3
275,2,MAIN_EXPERIMENT_BLOCK,4,MAIN_EXPERIMENT_TASK,276,228,2,2,3532,1,real,0,553,6,0,0,3,0,0,3
276,2,MAIN_EXPERIMENT_BLOCK,4,MAIN_EXPERIMENT_TASK,277,38,2,1,731,2,1055,0,529,6,0,0,3,1,0,3
277,2,MAIN_EXPERIMENT_BLOCK,4,MAIN_EXPERIMENT_TASK,278,25,2,1,598,2,344,0,550,6,0,0,3,1,0,3
278,2,MAIN_EXPERIMENT_BLOCK,4,MAIN_EXPERIMENT_TASK,279,207,1,1,1112,1,real,0,500,6,0,0,3,1,1,3
279,2,MAIN_EXPERIMENT_BLOCK,4,MAIN_EXPERIMENT_TASK,280,24,2,1,1565,2,344,0,543,6,0,0,3,1,0,3
280,2,MAIN_EXPERIMENT_BLOCK,4,MAIN_EXPERIMENT_TASK,281,57,2,1,832,2,1055,0,580,6,0,0,3,1,0,3
281,2,MAIN_EXPERIMENT_BLOCK,4,MAIN_EXPERIMENT_TASK,282,68,2,1,431,2,7954,0,465,6,0,0,3,1,0,3
282,2,MAIN_EXPERIMENT_BLOCK,4,MAIN_EXPERIMENT_TASK,283,42,2,1,511,2,1055,0,509,6,0,0,3,1,0,3
283,2,MAIN_EXPERIMENT_BLOCK,4,MAIN_EXPERIMENT_TASK,284,183,2,2,2962,1,real,0,537,6,0,0,3,0,0,3
284,2,MAIN_EXPERIMENT_BLOCK,4,MAIN_EXPERIMENT_TASK,285,148,2,1,2092,2,60000,0,489,6,0,0,3,1,0,3
285,2,MAIN_EXPERIMENT_BLOCK,4,MAIN_EXPERIMENT_TASK,286,99,2,1,1932,2,24440,0,513,6,0,0,3,1,0,3
286,2,MAIN_EXPERIMENT_BLOCK,4,MAIN_EXPERIMENT_TASK,287,22,2,1,542,2,344,0,544,6,0,0,3,1,0,3
287,2,MAIN_EXPERIMENT_BLOCK,4,MAIN_EXPERIMENT_TASK,288,227,2,2,2974,1,real,0,481,6,0,0,3,0,0,3
288,2,MAIN_EXPERIMENT_BLOCK,4,MAIN_EXPERIMENT_TASK,289,179,1,1,1607,1,real,0,527,6,0,0,3,1,1,3
289,2,MAIN_EXPERIMENT_BLOCK,4,MAIN_EXPERIMENT_TASK,290,201,2,2,2690,1,real,0,530,6,0,0,3,0,0,3
290,2,MAIN_EXPERIMENT_BLOCK,4,MAIN_EXPERIMENT_TASK,291,191,2,2,2651,1,real,0,512,6,0,0,3,0,0,3
291,2,MAIN_EXPERIMENT_BLOCK,4,MAIN_EXPERIMENT_TASK,292,36,2,1,1347,2,1055,0,524,6,0,0,3,1,0,3
292,2,MAIN_EXPERIMENT_BLOCK,4,MAIN_EXPERIMENT_TASK,293,239,2,2,5694,1,real,0,434,6,0,0,3,0,0,3
293,2,MAIN_EXPERIMENT_BLOCK,4,MAIN_EXPERIMENT_TASK,294,52,2,1,890,2,1055,0,532,6,0,0,3,1,0,3
294,2,MAIN_EXPERIMENT_BLOCK,4,MAIN_EXPERIMENT_TASK,295,157,2,1,3253,2,60000,0,429,6,0,0,3,1,0,3
295,2,MAIN_EXPERIMENT_BLOCK,4,MAIN_EXPERIMENT_TASK,296,74,2,1,2562,2,7954,0,459,6,0,0,3,1,0,3
296,2,MAIN_EXPERIMENT_BLOCK,4,MAIN_EXPERIMENT_TASK,297,163,2,2,3412,1,real,0,561,6,0,0,3,0,0,3
297,2,MAIN_EXPERIMENT_BLOCK,4,MAIN_EXPERIMENT_TASK,298,118,2,1,1527,2,24440,0,471,6,0,0,3,1,0,3
298,2,MAIN_EXPERIMENT_BLOCK,4,MAIN_EXPERIMENT_TASK,299,233,2,2,4034,1,real,0,451,6,0,0,3,0,0,3
299,2,MAIN_EXPERIMENT_BLOCK,4,MAIN_EXPERIMENT_TASK,300,229,2,2,1801,1,real,0,432,6,0,0,3,0,0,3
0,1,TRAINING_BLOCK,2,TRAINING_TASK,1,28,1,1,7914,1,real,1,403,6,0,0,4,1,1,3
1,1,TRAINING_BLOCK,2,TRAINING_TASK,2,30,2,2,3660,1,real,1,410,6,0,0,4,0,0,3
2,1,TRAINING_BLOCK,2,TRAINING_TASK,3,25,1,1,2374,1,real,1,533,6,0,0,4,1,1,3
3,1,TRAINING_BLOCK,2,TRAINING_TASK,4,6,1,2,3318,2,1055,1,423,6,0,0,4,0,1,3
4,1,TRAINING_BLOCK,2,TRAINING_TASK,5,15,1,2,2960,2,24440,1,459,6,0,0,4,0,1,3
5,1,TRAINING_BLOCK,2,TRAINING_TASK,6,14,2,1,2500,2,24440,1,455,6,0,0,4,1,0,3
6,1,TRAINING_BLOCK,2,TRAINING_TASK,7,21,1,1,5263,1,real,1,500,6,0,0,4,1,1,3
7,1,TRAINING_BLOCK,2,TRAINING_TASK,8,4,2,1,2700,2,344,1,510,6,0,0,4,1,0,3
8,1,TRAINING_BLOCK,2,TRAINING_TASK,9,13,1,2,5498,2,24440,1,489,6,0,0,4,0,1,3
9,1,TRAINING_BLOCK,2,TRAINING_TASK,10,11,2,1,3365,2,7954,1,410,6,0,0,4,1,0,3
10,1,TRAINING_BLOCK,2,TRAINING_TASK,11,20,2,1,2139,2,60000,1,586,6,0,0,4,1,0,3
11,1,TRAINING_BLOCK,2,TRAINING_TASK,12,19,2,1,1334,2,60000,1,403,6,0,0,4,1,0,3
12,1,TRAINING_BLOCK,2,TRAINING_TASK,13,26,1,1,3181,1,real,1,586,6,0,0,4,1,1,3
13,1,TRAINING_BLOCK,2,TRAINING_TASK,14,1,2,1,1203,2,344,1,525,6,0,0,4,1,0,3
14,1,TRAINING_BLOCK,2,TRAINING_TASK,15,24,2,2,2782,1,real,1,446,6,0,0,4,0,0,3
15,1,TRAINING_BLOCK,2,TRAINING_TASK,16,27,1,1,4552,1,real,1,460,6,0,0,4,1,1,3
16,1,TRAINING_BLOCK,2,TRAINING_TASK,17,22,2,2,2915,1,real,1,419,6,0,0,4,0,0,3
17,1,TRAINING_BLOCK,2,TRAINING_TASK,18,5,2,1,1005,2,1055,1,580,6,0,0,4,1,0,3
18,1,TRAINING_BLOCK,2,TRAINING_TASK,19,17,1,2,2352,2,60000,1,410,6,0,0,4,0,1,3
19,1,TRAINING_BLOCK,2,TRAINING_TASK,20,10,2,1,2928,2,7954,1,425,6,0,0,4,1,0,3
20,1,TRAINING_BLOCK,2,TRAINING_TASK,21,8,2,1,1272,2,1055,1,413,6,0,0,4,1,0,3
21,1,TRAINING_BLOCK,2,TRAINING_TASK,22,29,1,1,1935,1,real,1,475,6,0,0,4,1,1,3
22,1,TRAINING_BLOCK,2,TRAINING_TASK,23,23,1,1,1583,1,real,1,522,6,0,0,4,1,1,3
23,1,TRAINING_BLOCK,2,TRAINING_TASK,24,16,2,1,1663,2,24440,1,416,6,0,0,4,1,0,3
24,1,TRAINING_BLOCK,2,TRAINING_TASK,25,3,2,1,921,2,344,1,545,6,0,0,4,1,0,3
25,1,TRAINING_BLOCK,2,TRAINING_TASK,26,12,2,1,2261,2,7954,1,493,6,0,0,4,1,0,3
26,1,TRAINING_BLOCK,2,TRAINING_TASK,27,18,1,2,2461,2,60000,1,415,6,0,0,4,0,1,3
27,1,TRAINING_BLOCK,2,TRAINING_TASK,28,7,2,1,1911,2,1055,1,503,6,0,0,4,1,0,3
28,1,TRAINING_BLOCK,2,TRAINING_TASK,29,9,2,1,1897,2,7954,1,418,6,0,0,4,1,0,3
29,1,TRAINING_BLOCK,2,TRAINING_TASK,30,2,2,1,1341,2,344,1,401,6,0,0,4,1,0,3
30,1,MAIN_EXPERIMENT_BLOCK,3,MAIN_EXPERIMENT_TASK,31,41,2,1,794,2,1055,0,521,6,0,0,4,1,0,3
31,1,MAIN_EXPERIMENT_BLOCK,3,MAIN_EXPERIMENT_TASK,32,110,2,1,3089,2,24440,0,412,6,0,0,4,1,0,3
32,1,MAIN_EXPERIMENT_BLOCK,3,MAIN_EXPERIMENT_TASK,33,147,2,1,2403,2,60000,0,475,6,0,0,4,1,0,3
33,1,MAIN_EXPERIMENT_BLOCK,3,MAIN_EXPERIMENT_TASK,34,118,2,1,3837,2,24440,0,558,6,0,0,4,1,0,3
34,1,MAIN_EXPERIMENT_BLOCK,3,MAIN_EXPERIMENT_TASK,35,152,1,2,3497,2,60000,0,402,6,0,0,4,0,1,3
35,1,MAIN_EXPERIMENT_BLOCK,3,MAIN_EXPERIMENT_TASK,36,87,2,1,1338,2,7954,0,409,6,0,0,4,1,0,3
36,1,MAIN_EXPERIMENT_BLOCK,3,MAIN_EXPERIMENT_TASK,37,153,1,2,4720,2,60000,0,525,6,0,0,4,0,1,3
37,1,MAIN_EXPERIMENT_BLOCK,3,MAIN_EXPERIMENT_TASK,38,18,2,1,1138,2,344,0,562,6,0,0,4,1,0,3
38,1,MAIN_EXPERIMENT_BLOCK,3,MAIN_EXPERIMENT_TASK,39,13,2,1,867,2,344,0,484,6,0,0,4,1,0,3
39,1,MAIN_EXPERIMENT_BLOCK,3,MAIN_EXPERIMENT_TASK,40,127,2,1,2268,2,24440,0,512,6,0,0,4,1,0,3
40,1,MAIN_EXPERIMENT_BLOCK,3,MAIN_EXPERIMENT_TASK,41,139,1,2,3896,2,60000,0,463,6,0,0,4,0,1,3
41,1,MAIN_EXPERIMENT_BLOCK,3,MAIN_EXPERIMENT_TASK,42,226,1,1,2026,1,real,0,453,6,0,0,4,1,1,3
42,1,MAIN_EXPERIMENT_BLOCK,3,MAIN_EXPERIMENT_TASK,43,51,2,1,1052,2,1055,0,515,6,0,0,4,1,0,3
43,1,MAIN_EXPERIMENT_BLOCK,3,MAIN_EXPERIMENT_TASK,44,155,2,1,3080,2,60000,0,581,6,0,0,4,1,0,3
44,1,MAIN_EXPERIMENT_BLOCK,3,MAIN_EXPERIMENT_TASK,45,4,2,1,879,2,344,0,450,6,0,0,4,1,0,3
45,1,MAIN_EXPERIMENT_BLOCK,3,MAIN_EXPERIMENT_TASK,46,239,1,1,2872,1,real,0,547,6,0,0,4,1,1,3
46,1,MAIN_EXPERIMENT_BLOCK,3,MAIN_EXPERIMENT_TASK,47,164,1,1,5392,1,real,0,439,6,0,0,4,1,1,3
47,1,MAIN_EXPERIMENT_BLOCK,3,MAIN_EXPERIMENT_TASK,48,230,2,2,2659,1,real,0,590,6,0,0,4,0,0,3
48,1,MAIN_EXPERIMENT_BLOCK,3,MAIN_EXPERIMENT_TASK,49,176,1,1,1697,1,real,0,469,6,0,0,4,1,1,3
49,1,MAIN_EXPERIMENT_BLOCK,3,MAIN_EXPERIMENT_TASK,50,14,2,1,711,2,344,0,480,6,0,0,4,1,0,3
50,1,MAIN_EXPERIMENT_BLOCK,3,MAIN_EXPERIMENT_TASK,51,175,2,2,3981,1,real,0,585,6,0,0,4,0,0,3
51,1,MAIN_EXPERIMENT_BLOCK,3,MAIN_EXPERIMENT_TASK,52,123,1,2,4363,2,24440,0,492,6,0,0,4,0,1,3
52,1,MAIN_EXPERIMENT_BLOCK,3,MAIN_EXPERIMENT_TASK,53,221,2,2,3161,1,real,0,568,6,0,0,4,0,0,3
53,1,MAIN_EXPERIMENT_BLOCK,3,MAIN_EXPERIMENT_TASK,54,210,2,2,3571,1,real,0,404,6,0,0,4,0,0,3
54,1,MAIN_EXPERIMENT_BLOCK,3,MAIN_EXPERIMENT_TASK,55,30,2,1,817,2,344,0,472,6,0,0,4,1,0,3
55,1,MAIN_EXPERIMENT_BLOCK,3,MAIN_EXPERIMENT_TASK,56,5,2,1,671,2,344,0,524,6,0,0,4,1,0,3
56,1,MAIN_EXPERIMENT_BLOCK,3,MAIN_EXPERIMENT_TASK,57,63,2,1,986,2,1055,0,529,6,0,0,4,1,0,3
57,1,MAIN_EXPERIMENT_BLOCK,3,MAIN_EXPERIMENT_TASK,58,25,2,1,805,2,344,0,572,6,0,0,4,1,0,3
58,1,MAIN_EXPERIMENT_BLOCK,3,MAIN_EXPERIMENT_TASK,59,32,2,1,853,2,344,0,450,6,0,0,4,1,0,3
59,1,MAIN_EXPERIMENT_BLOCK,3,MAIN_EXPERIMENT_TASK,60,111,2,1,1619,2,24440,0,580,6,0,0,4,1,0,3
60,1,MAIN_EXPERIMENT_BLOCK,3,MAIN_EXPERIMENT_TASK,61,182,1,1,3156,1,real,0,489,6,0,0,4,1,1,3
61,1,MAIN_EXPERIMENT_BLOCK,3,MAIN_EXPERIMENT_TASK,62,17,2,1,960,2,344,0,463,6,0,0,4,1,0,3
62,1,MAIN_EXPERIMENT_BLOCK,3,MAIN_EXPERIMENT_TASK,63,65,2,1,1675,2,7954,0,441,6,0,0,4,1,0,3
63,1,MAIN_EXPERIMENT_BLOCK,3,MAIN_EXPERIMENT_TASK,64,31,2,1,1193,2,344,0,577,6,0,0,4,1,0,3
64,1,MAIN_EXPERIMENT_BLOCK,3,MAIN_EXPERIMENT_TASK,65,109,1,2,5136,2,24440,0,481,6,0,0,4,0,1,3
65,1,MAIN_EXPERIMENT_BLOCK,3,MAIN_EXPERIMENT_TASK,66,38,2,1,1002,2,1055,0,441,6,0,0,4,1,0,3
66,1,MAIN_EXPERIMENT_BLOCK,3,MAIN_EXPERIMENT_TASK,67,22,2,1,727,2,344,0,440,6,0,0,4,1,0,3
67,1,MAIN_EXPERIMENT_BLOCK,3,MAIN_EXPERIMENT_TASK,68,202,1,1,2516,1,real,0,558,6,0,0,4,1,1,3
68,1,MAIN_EXPERIMENT_BLOCK,3,MAIN_EXPERIMENT_TASK,69,74,2,1,1189,2,7954,0,446,6,0,0,4,1,0,3
69,1,MAIN_EXPERIMENT_BLOCK,3,MAIN_EXPERIMENT_TASK,70,82,2,1,1328,2,7954,0,472,6,0,0,4,1,0,3
70,1,MAIN_EXPERIMENT_BLOCK,3,MAIN_EXPERIMENT_TASK,71,47,2,1,1158,2,1055,0,514,6,0,0,4,1,0,3
71,1,MAIN_EXPERIMENT_BLOCK,3,MAIN_EXPERIMENT_TASK,72,228,1,1,1541,1,real,0,583,6,0,0,4,1,1,3
72,1,MAIN_EXPERIMENT_BLOCK,3,MAIN_EXPERIMENT_TASK,73,16,2,1,783,2,344,0,454,6,0,0,4,1,0,3
73,1,MAIN_EXPERIMENT_BLOCK,3,MAIN_EXPERIMENT_TASK,74,90,2,1,1447,2,7954,0,560,6,0,0,4,1,0,3
74,1,MAIN_EXPERIMENT_BLOCK,3,MAIN_EXPERIMENT_TASK,75,222,1,1,1105,1,real,0,482,6,0,0,4,1,1,3
75,1,MAIN_EXPERIMENT_BLOCK,3,MAIN_EXPERIMENT_TASK,76,129,2,1,1974,2,60000,0,586,6,0,0,4,1,0,3
76,1,MAIN_EXPERIMENT_BLOCK,3,MAIN_EXPERIMENT_TASK,77,42,2,1,843,2,1055,0,544,6,0,0,4,1,0,3
77,1,MAIN_EXPERIMENT_BLOCK,3,MAIN_EXPERIMENT_TASK,78,192,2,2,3645,1,real,0,500,6,0,0,4,0,0,3
78,1,MAIN_EXPERIMENT_BLOCK,3,MAIN_EXPERIMENT_TASK,79,85,2,1,1129,2,7954,0,450,6,0,0,4,1,0,3
79,1,MAIN_EXPERIMENT_BLOCK,3,MAIN_EXPERIMENT_TASK,80,39,2,1,712,2,1055,0,591,6,0,0,4,1,0,3
80,1,MAIN_EXPERIMENT_BLOCK,3,MAIN_EXPERIMENT_TASK,81,148,2,1,2119,2,60000,0,593,6,0,0,4,1,0,3
81,1,MAIN_EXPERIMENT_BLOCK,3,MAIN_EXPERIMENT_TASK,82,166,1,1,1078,1,real,0,591,6,0,0,4,1,1,3
82,1,MAIN_EXPERIMENT_BLOCK,3,MAIN_EXPERIMENT_TASK,83,125,2,1,2642,2,24440,0,443,6,0,0,4,1,0,3
83,1,MAIN_EXPERIMENT_BLOCK,3,MAIN_EXPERIMENT_TASK,84,52,2,1,702,2,1055,0,419,6,0,0,4,1,0,3
84,1,MAIN_EXPERIMENT_BLOCK,3,MAIN_EXPERIMENT_TASK,85,46,2,1,841,2,1055,0,484,6,0,0,4,1,0,3
85,1,MAIN_EXPERIMENT_BLOCK,3,MAIN_EXPERIMENT_TASK,86,70,2,1,958,2,7954,0,528,6,0,0,4,1,0,3
86,1,MAIN_EXPERIMENT_BLOCK,3,MAIN_EXPERIMENT_TASK,87,34,2,1,971,2,1055,0,425,6,0,0,4,1,0,3
87,1,MAIN_EXPERIMENT_BLOCK,3,MAIN_EXPERIMENT_TASK,88,144,1,2,1759,2,60000,0,586,6,0,0,4,0,1,3
88,1,MAIN_EXPERIMENT_BLOCK,3,MAIN_EXPERIMENT_TASK,89,15,2,1,829,2,344,0,430,6,0,0,4,1,0,3
89,1,MAIN_EXPERIMENT_BLOCK,3,MAIN_EXPERIMENT_TASK,90,77,2,1,1122,2,7954,0,516,6,0,0,4,1,0,3
90,1,MAIN_EXPERIMENT_BLOCK,3,MAIN_EXPERIMENT_TASK,91,1,2,1,1424,2,344,0,424,6,0,0,4,1,0,3
91,1,MAIN_EXPERIMENT_BLOCK,3,MAIN_EXPERIMENT_TASK,92,112,2,1,3640,2,24440,0,467,6,0,0,4,1,0,3
92,1,MAIN_EXPERIMENT_BLOCK,3,MAIN_EXPERIMENT_TASK,93,154,1,2,2293,2,60000,0,448,6,0,0,4,0,1,3
93,1,MAIN_EXPERIMENT_BLOCK,3,MAIN_EXPERIMENT_TASK,94,219,2,2,2864,1,real,0,537,6,0,0,4,0,0,3
94,1,MAIN_EXPERIMENT_BLOCK,3,MAIN_EXPERIMENT_TASK,95,11,2,1,826,2,344,0,533,6,0,0,4,1,0,3
95,1,MAIN_EXPERIMENT_BLOCK,3,MAIN_EXPERIMENT_TASK,96,132,2,1,1389,2,60000,0,441,6,0,0,4,1,0,3
96,1,MAIN_EXPERIMENT_BLOCK,3,MAIN_EXPERIMENT_TASK,97,20,2,1,1101,2,344,0,577,6,0,0,4,1,0,3
97,1,MAIN_EXPERIMENT_BLOCK,3,MAIN_EXPERIMENT_TASK,98,98,2,1,2183,2,24440,0,520,6,0,0,4,1,0,3
98,1,MAIN_EXPERIMENT_BLOCK,3,MAIN_EXPERIMENT_TASK,99,68,2,1,1306,2,7954,0,422,6,0,0,4,1,0,3
99,1,MAIN_EXPERIMENT_BLOCK,3,MAIN_EXPERIMENT_TASK,100,231,1,1,1125,1,real,0,594,6,0,0,4,1,1,3
100,1,MAIN_EXPERIMENT_BLOCK,3,MAIN_EXPERIMENT_TASK,101,136,1,2,2029,2,60000,0,543,6,0,0,4,0,1,3
101,1,MAIN_EXPERIMENT_BLOCK,3,MAIN_EXPERIMENT_TASK,102,201,1,1,1137,1,real,0,531,6,0,0,4,1,1,3
102,1,MAIN_EXPERIMENT_BLOCK,3,MAIN_EXPERIMENT_TASK,103,157,2,1,1648,2,60000,0,467,6,0,0,4,1,0,3
103,1,MAIN_EXPERIMENT_BLOCK,3,MAIN_EXPERIMENT_TASK,104,196,2,2,2383,1,real,0,533,6,0,0,4,0,0,3
104,1,MAIN_EXPERIMENT_BLOCK,3,MAIN_EXPERIMENT_TASK,105,61,2,1,820,2,1055,0,429,6,0,0,4,1,0,3
105,1,MAIN_EXPERIMENT_BLOCK,3,MAIN_EXPERIMENT_TASK,106,62,2,1,909,2,1055,0,441,6,0,0,4,1,0,3
106,1,MAIN_EXPERIMENT_BLOCK,3,MAIN_EXPERIMENT_TASK,107,99,2,1,1577,2,24440,0,450,6,0,0,4,1,0,3
107,1,MAIN_EXPERIMENT_BLOCK,3,MAIN_EXPERIMENT_TASK,108,33,2,1,910,2,1055,0,415,6,0,0,4,1,0,3
108,1,MAIN_EXPERIMENT_BLOCK,3,MAIN_EXPERIMENT_TASK,109,24,2,1,806,2,344,0,570,6,0,0,4,1,0,3
109,1,MAIN_EXPERIMENT_BLOCK,3,MAIN_EXPERIMENT_TASK,110,195,1,1,996,1,real,0,526,6,0,0,4,1,1,3
110,1,MAIN_EXPERIMENT_BLOCK,3,MAIN_EXPERIMENT_TASK,111,142,2,2,101929,2,60000,0,477,6,0,0,4,0,0,3
111,1,MAIN_EXPERIMENT_BLOCK,3,MAIN_EXPERIMENT_TASK,112,121,2,1,2884,2,24440,0,475,6,0,0,4,1,0,3
112,1,MAIN_EXPERIMENT_BLOCK,3,MAIN_EXPERIMENT_TASK,113,6,2,1,813,2,344,0,598,6,0,0,4,1,0,3
113,1,MAIN_EXPERIMENT_BLOCK,3,MAIN_EXPERIMENT_TASK,114,138,1,2,1176,2,60000,0,469,6,0,0,4,0,1,3
114,1,MAIN_EXPERIMENT_BLOCK,3,MAIN_EXPERIMENT_TASK,115,126,2,1,890,2,24440,0,517,6,0,0,4,1,0,3
115,1,MAIN_EXPERIMENT_BLOCK,3,MAIN_EXPERIMENT_TASK,116,179,1,1,1377,1,real,0,528,6,0,0,4,1,1,3
116,1,MAIN_EXPERIMENT_BLOCK,3,MAIN_EXPERIMENT_TASK,117,216,2,2,1713,1,real,0,525,6,0,0,4,0,0,3
117,1,MAIN_EXPERIMENT_BLOCK,3,MAIN_EXPERIMENT_TASK,118,88,2,1,567,2,7954,0,402,6,0,0,4,1,0,3
118,1,MAIN_EXPERIMENT_BLOCK,3,MAIN_EXPERIMENT_TASK,119,187,1,1,1442,1,real,0,410,6,0,0,4,1,1,3
119,1,MAIN_EXPERIMENT_BLOCK,3,MAIN_EXPERIMENT_TASK,120,96,2,1,1748,2,7954,0,588,6,0,0,4,1,0,3
120,1,MAIN_EXPERIMENT_BLOCK,3,MAIN_EXPERIMENT_TASK,121,145,1,2,1190,2,60000,0,448,6,0,0,4,0,1,3
121,1,MAIN_EXPERIMENT_BLOCK,3,MAIN_EXPERIMENT_TASK,122,100,2,1,1192,2,24440,0,516,6,0,0,4,1,0,3
122,1,MAIN_EXPERIMENT_BLOCK,3,MAIN_EXPERIMENT_TASK,123,106,2,1,1730,2,24440,0,595,6,0,0,4,1,0,3
123,1,MAIN_EXPERIMENT_BLOCK,3,MAIN_EXPERIMENT_TASK,124,36,2,1,787,2,1055,0,493,6,0,0,4,1,0,3
124,1,MAIN_EXPERIMENT_BLOCK,3,MAIN_EXPERIMENT_TASK,125,168,1,1,2027,1,real,0,582,6,0,0,4,1,1,3
125,1,MAIN_EXPERIMENT_BLOCK,3,MAIN_EXPERIMENT_TASK,126,190,1,1,1559,1,real,0,428,6,0,0,4,1,1,3
126,1,MAIN_EXPERIMENT_BLOCK,3,MAIN_EXPERIMENT_TASK,127,81,2,1,875,2,7954,0,484,6,0,0,4,1,0,3
127,1,MAIN_EXPERIMENT_BLOCK,3,MAIN_EXPERIMENT_TASK,128,229,1,1,1100,1,real,0,571,6,0,0,4,1,1,3
128,1,MAIN_EXPERIMENT_BLOCK,3,MAIN_EXPERIMENT_TASK,129,108,2,1,1608,2,24440,0,544,6,0,0,4,1,0,3
129,1,MAIN_EXPERIMENT_BLOCK,3,MAIN_EXPERIMENT_TASK,130,10,2,1,667,2,344,0,448,6,0,0,4,1,0,3
130,1,MAIN_EXPERIMENT_BLOCK,3,MAIN_EXPERIMENT_TASK,131,171,2,2,2652,1,real,0,430,6,0,0,4,0,0,3
131,1,MAIN_EXPERIMENT_BLOCK,3,MAIN_EXPERIMENT_TASK,132,80,2,1,2788,2,7954,0,459,6,0,0,4,1,0,3
132,1,MAIN_EXPERIMENT_BLOCK,3,MAIN_EXPERIMENT_TASK,133,191,1,1,3550,1,real,0,533,6,0,0,4,1,1,3
133,1,MAIN_EXPERIMENT_BLOCK,3,MAIN_EXPERIMENT_TASK,134,49,2,1,933,2,1055,0,513,6,0,0,4,1,0,3
134,1,MAIN_EXPERIMENT_BLOCK,3,MAIN_EXPERIMENT_TASK,135,140,1,2,1549,2,60000,0,569,6,0,0,4,0,1,3
135,1,MAIN_EXPERIMENT_BLOCK,3,MAIN_EXPERIMENT_TASK,136,211,1,1,1370,1,real,0,567,6,0,0,4,1,1,3
136,1,MAIN_EXPERIMENT_BLOCK,3,MAIN_EXPERIMENT_TASK,137,116,2,1,633,2,24440,0,575,6,0,0,4,1,0,3
137,1,MAIN_EXPERIMENT_BLOCK,3,MAIN_EXPERIMENT_TASK,138,89,2,1,943,2,7954,0,485,6,0,0,4,1,0,3
138,1,MAIN_EXPERIMENT_BLOCK,3,MAIN_EXPERIMENT_TASK,139,204,2,2,2176,1,real,0,452,6,0,0,4,0,0,3
139,1,MAIN_EXPERIMENT_BLOCK,3,MAIN_EXPERIMENT_TASK,140,122,2,1,2307,2,24440,0,549,6,0,0,4,1,0,3
140,1,MAIN_EXPERIMENT_BLOCK,3,MAIN_EXPERIMENT_TASK,141,115,2,1,2097,2,24440,0,563,6,0,0,4,1,0,3
141,1,MAIN_EXPERIMENT_BLOCK,3,MAIN_EXPERIMENT_TASK,142,206,1,1,1002,1,real,0,565,6,0,0,4,1,1,3
142,1,MAIN_EXPERIMENT_BLOCK,3,MAIN_EXPERIMENT_TASK,143,103,1,2,1660,2,24440,0,546,6,0,0,4,0,1,3
143,1,MAIN_EXPERIMENT_BLOCK,3,MAIN_EXPERIMENT_TASK,144,131,2,1,3194,2,60000,0,501,6,0,0,4,1,0,3
144,1,MAIN_EXPERIMENT_BLOCK,3,MAIN_EXPERIMENT_TASK,145,134,2,1,1934,2,60000,0,456,6,0,0,4,1,0,3
145,1,MAIN_EXPERIMENT_BLOCK,3,MAIN_EXPERIMENT_TASK,146,91,2,1,886,2,7954,0,575,6,0,0,4,1,0,3
146,1,MAIN_EXPERIMENT_BLOCK,3,MAIN_EXPERIMENT_TASK,147,56,2,1,784,2,1055,0,598,6,0,0,4,1,0,3
147,1,MAIN_EXPERIMENT_BLOCK,3,MAIN_EXPERIMENT_TASK,148,133,2,1,2558,2,60000,0,512,6,0,0,4,1,0,3
148,1,MAIN_EXPERIMENT_BLOCK,3,MAIN_EXPERIMENT_TASK,149,97,1,2,1060,2,24440,0,518,6,0,0,4,0,1,3
149,1,MAIN_EXPERIMENT_BLOCK,3,MAIN_EXPERIMENT_TASK,150,2,2,1,725,2,344,0,567,6,0,0,4,1,0,3
150,1,MAIN_EXPERIMENT_BLOCK,3,MAIN_EXPERIMENT_TASK,151,240,1,1,1679,1,real,0,428,6,0,0,4,1,1,3
151,1,MAIN_EXPERIMENT_BLOCK,3,MAIN_EXPERIMENT_TASK,152,54,2,1,791,2,1055,0,565,6,0,0,4,1,0,3
152,1,MAIN_EXPERIMENT_BLOCK,3,MAIN_EXPERIMENT_TASK,153,19,2,1,1582,2,344,0,535,6,0,0,4,1,0,3
153,1,MAIN_EXPERIMENT_BLOCK,3,MAIN_EXPERIMENT_TASK,154,199,1,1,2798,1,real,0,439,6,0,0,4,1,1,3
154,1,MAIN_EXPERIMENT_BLOCK,3,MAIN_EXPERIMENT_TASK,155,207,2,2,4567,1,real,0,515,6,0,0,4,0,0,3
155,1,MAIN_EXPERIMENT_BLOCK,3,MAIN_EXPERIMENT_TASK,156,120,2,1,4066,2,24440,0,442,6,0,0,4,1,0,3
156,1,MAIN_EXPERIMENT_BLOCK,3,MAIN_EXPERIMENT_TASK,157,232,1,1,1679,1,real,0,592,6,0,0,4,1,1,3
157,1,MAIN_EXPERIMENT_BLOCK,3,MAIN_EXPERIMENT_TASK,158,79,2,1,948,2,7954,0,574,6,0,0,4,1,0,3
158,1,MAIN_EXPERIMENT_BLOCK,3,MAIN_EXPERIMENT_TASK,159,57,2,1,745,2,1055,0,530,6,0,0,4,1,0,3
159,1,MAIN_EXPERIMENT_BLOCK,3,MAIN_EXPERIMENT_TASK,160,169,1,1,1622,1,real,0,422,6,0,0,4,1,1,3
160,1,MAIN_EXPERIMENT_BLOCK,3,MAIN_EXPERIMENT_TASK,161,236,1,1,2230,1,real,0,411,6,0,0,4,1,1,3
161,1,MAIN_EXPERIMENT_BLOCK,3,MAIN_EXPERIMENT_TASK,162,59,2,1,700,2,1055,0,411,6,0,0,4,1,0,3
162,1,MAIN_EXPERIMENT_BLOCK,3,MAIN_EXPERIMENT_TASK,163,220,1,1,2204,1,real,0,412,6,0,0,4,1,1,3
163,1,MAIN_EXPERIMENT_BLOCK,3,MAIN_EXPERIMENT_TASK,164,29,2,1,664,2,344,0,547,6,0,0,4,1,0,3
164,1,MAIN_EXPERIMENT_BLOCK,3,MAIN_EXPERIMENT_TASK,165,9,2,1,615,2,344,0,589,6,0,0,4,1,0,3
165,1,MAIN_EXPERIMENT_BLOCK,3,MAIN_EXPERIMENT_TASK,166,58,2,1,1165,2,1055,0,454,6,0,0,4,1,0,3
166,1,MAIN_EXPERIMENT_BLOCK,3,MAIN_EXPERIMENT_TASK,167,205,1,1,2924,1,real,0,536,6,0,0,4,1,1,3
167,1,MAIN_EXPERIMENT_BLOCK,3,MAIN_EXPERIMENT_TASK,168,197,1,1,1202,1,real,0,561,6,0,0,4,1,1,3
168,1,MAIN_EXPERIMENT_BLOCK,3,MAIN_EXPERIMENT_TASK,169,193,2,2,1714,1,real,0,600,6,0,0,4,0,0,3
169,1,MAIN_EXPERIMENT_BLOCK,3,MAIN_EXPERIMENT_TASK,170,21,2,1,615,2,344,0,466,6,0,0,4,1,0,3
170,1,MAIN_EXPERIMENT_BLOCK,3,MAIN_EXPERIMENT_TASK,171,184,1,1,3225,1,real,0,554,6,0,0,4,1,1,3
171,1,MAIN_EXPERIMENT_BLOCK,3,MAIN_EXPERIMENT_TASK,172,159,2,1,1094,2,60000,0,535,6,0,0,4,1,0,3
172,1,MAIN_EXPERIMENT_BLOCK,3,MAIN_EXPERIMENT_TASK,173,141,2,1,3053,2,60000,0,568,6,0,0,4,1,0,3
173,1,MAIN_EXPERIMENT_BLOCK,3,MAIN_EXPERIMENT_TASK,174,26,2,1,631,2,344,0,524,6,0,0,4,1,0,3
174,1,MAIN_EXPERIMENT_BLOCK,3,MAIN_EXPERIMENT_TASK,175,12,2,1,710,2,344,0,598,6,0,0,4,1,0,3
175,1,MAIN_EXPERIMENT_BLOCK,3,MAIN_EXPERIMENT_TASK,176,50,2,1,938,2,1055,0,587,6,0,0,4,1,0,3
176,1,MAIN_EXPERIMENT_BLOCK,3,MAIN_EXPERIMENT_TASK,177,183,2,2,1979,1,real,0,599,6,0,0,4,0,0,3
177,1,MAIN_EXPERIMENT_BLOCK,3,MAIN_EXPERIMENT_TASK,178,237,2,2,3680,1,real,0,591,6,0,0,4,0,0,3
178,1,MAIN_EXPERIMENT_BLOCK,3,MAIN_EXPERIMENT_TASK,179,44,2,1,1303,2,1055,0,498,6,0,0,4,1,0,3
179,1,MAIN_EXPERIMENT_BLOCK,3,MAIN_EXPERIMENT_TASK,180,172,1,1,1517,1,real,0,443,6,0,0,4,1,1,3
180,1,MAIN_EXPERIMENT_BLOCK,3,MAIN_EXPERIMENT_TASK,181,67,2,1,2684,2,7954,0,534,6,0,0,4,1,0,3
181,1,MAIN_EXPERIMENT_BLOCK,3,MAIN_EXPERIMENT_TASK,182,194,1,1,1159,1,real,0,415,6,0,0,4,1,1,3
182,1,MAIN_EXPERIMENT_BLOCK,3,MAIN_EXPERIMENT_TASK,183,223,1,1,2497,1,real,0,580,6,0,0,4,1,1,3
183,1,MAIN_EXPERIMENT_BLOCK,3,MAIN_EXPERIMENT_TASK,184,217,2,2,3581,1,real,0,507,6,0,0,4,0,0,3
184,1,MAIN_EXPERIMENT_BLOCK,3,MAIN_EXPERIMENT_TASK,185,92,2,1,787,2,7954,0,507,6,0,0,4,1,0,3
185,1,MAIN_EXPERIMENT_BLOCK,3,MAIN_EXPERIMENT_TASK,186,165,2,2,1352,1,real,0,482,6,0,0,4,0,0,3
186,1,MAIN_EXPERIMENT_BLOCK,3,MAIN_EXPERIMENT_TASK,187,40,2,1,835,2,1055,0,511,6,0,0,4,1,0,3
187,1,MAIN_EXPERIMENT_BLOCK,3,MAIN_EXPERIMENT_TASK,188,143,1,2,1036,2,60000,0,523,6,0,0,4,0,1,3
188,1,MAIN_EXPERIMENT_BLOCK,3,MAIN_EXPERIMENT_TASK,189,149,2,1,2266,2,60000,0,491,6,0,0,4,1,0,3
189,1,MAIN_EXPERIMENT_BLOCK,3,MAIN_EXPERIMENT_TASK,190,27,2,1,909,2,344,0,411,6,0,0,4,1,0,3
190,1,MAIN_EXPERIMENT_BLOCK,3,MAIN_EXPERIMENT_TASK,191,146,1,2,2095,2,60000,0,508,6,0,0,4,0,1,3
191,1,MAIN_EXPERIMENT_BLOCK,3,MAIN_EXPERIMENT_TASK,192,3,2,2,50053,2,344,0,571,6,0,0,4,0,0,3
192,1,MAIN_EXPERIMENT_BLOCK,3,MAIN_EXPERIMENT_TASK,193,35,2,1,1125,2,1055,0,475,6,0,0,4,1,0,3
193,1,MAIN_EXPERIMENT_BLOCK,3,MAIN_EXPERIMENT_TASK,194,102,2,1,2966,2,24440,0,524,6,0,0,4,1,0,3
194,1,MAIN_EXPERIMENT_BLOCK,3,MAIN_EXPERIMENT_TASK,195,214,2,2,1916,1,real,0,493,6,0,0,4,0,0,3
195,1,MAIN_EXPERIMENT_BLOCK,3,MAIN_EXPERIMENT_TASK,196,119,1,2,2015,2,24440,0,572,6,0,0,4,0,1,3
196,1,MAIN_EXPERIMENT_BLOCK,3,MAIN_EXPERIMENT_TASK,197,130,2,1,1814,2,60000,0,541,6,0,0,4,1,0,3
197,1,MAIN_EXPERIMENT_BLOCK,3,MAIN_EXPERIMENT_TASK,198,76,2,1,1658,2,7954,0,590,6,0,0,4,1,0,3
198,1,MAIN_EXPERIMENT_BLOCK,3,MAIN_EXPERIMENT_TASK,199,173,1,1,2275,1,real,0,421,6,0,0,4,1,1,3
199,1,MAIN_EXPERIMENT_BLOCK,3,MAIN_EXPERIMENT_TASK,200,107,1,2,1340,2,24440,0,406,6,0,0,4,0,1,3
200,1,MAIN_EXPERIMENT_BLOCK,3,MAIN_EXPERIMENT_TASK,201,114,2,1,3283,2,24440,0,433,6,0,0,4,1,0,3
201,1,MAIN_EXPERIMENT_BLOCK,3,MAIN_EXPERIMENT_TASK,202,72,2,1,2285,2,7954,0,521,6,0,0,4,1,0,3
202,1,MAIN_EXPERIMENT_BLOCK,3,MAIN_EXPERIMENT_TASK,203,185,1,1,1352,1,real,0,511,6,0,0,4,1,1,3
203,1,MAIN_EXPERIMENT_BLOCK,3,MAIN_EXPERIMENT_TASK,204,227,2,2,2634,1,real,0,534,6,0,0,4,0,0,3
204,1,MAIN_EXPERIMENT_BLOCK,3,MAIN_EXPERIMENT_TASK,205,215,1,1,1652,1,real,0,501,6,0,0,4,1,1,3
205,1,MAIN_EXPERIMENT_BLOCK,3,MAIN_EXPERIMENT_TASK,206,64,2,1,750,2,1055,0,460,6,0,0,4,1,0,3
