,blockorder,blockname,blocknumber,task,trialcount,tablerow,key,status,RT,target_button,batch,timeout,ITI,rate,rate_RT,rate_status,participant,correct,real,experience
270,1,RATING_BLOCK,4,RATING_TASK,271,1,0,0,0,0,344,0,0,4,8075,1,1,2,2,3
271,1,RATING_BLOCK,4,RATING_TASK,272,6,0,0,0,0,1055,0,0,2,4962,1,1,2,2,3
272,1,RATING_BLOCK,4,RATING_TASK,273,16,0,0,0,0,24440,0,0,2,7500,1,1,2,2,3
273,1,RATING_BLOCK,4,RATING_TASK,274,21,0,0,0,0,60000,0,0,4,6172,1,1,2,2,3
274,1,RATING_BLOCK,4,RATING_TASK,275,2,0,0,0,0,344,0,0,3,2380,1,1,2,2,3
275,1,RATING_BLOCK,4,RATING_TASK,276,3,0,0,0,0,344,0,0,3,2077,1,1,2,2,3
276,1,RATING_BLOCK,4,RATING_TASK,277,30,0,0,0,0,real,0,0,2,9757,1,1,2,2,3
277,1,RATING_BLOCK,4,RATING_TASK,278,26,0,0,0,0,real,0,0,2,2035,1,1,2,2,3
278,1,RATING_BLOCK,4,RATING_TASK,279,20,0,0,0,0,24440,0,0,3,2420,1,1,2,2,3
279,1,RATING_BLOCK,4,RATING_TASK,280,9,0,0,0,0,1055,0,0,1,3077,1,1,2,2,3
280,1,RATING_BLOCK,4,RATING_TASK,281,13,0,0,0,0,7954,0,0,1,3661,1,1,2,2,3
281,1,RATING_BLOCK,4,RATING_TASK,282,18,0,0,0,0,24440,0,0,2,2004,1,1,2,2,3
282,1,RATING_BLOCK,4,RATING_TASK,283,8,0,0,0,0,1055,0,0,3,1387,1,1,2,2,3
283,1,RATING_BLOCK,4,RATING_TASK,284,12,0,0,0,0,7954,0,0,3,3133,1,1,2,2,3
284,1,RATING_BLOCK,4,RATING_TASK,285,10,0,0,0,0,1055,0,0,3,1461,1,1,2,2,3
285,1,RATING_BLOCK,4,RATING_TASK,286,25,0,0,0,0,60000,0,0,2,4070,1,1,2,2,3
286,1,RATING_BLOCK,4,RATING_TASK,287,15,0,0,0,0,7954,0,0,2,4222,1,1,2,2,3
287,1,RATING_BLOCK,4,RATING_TASK,288,24,0,0,0,0,60000,0,0,3,3747,1,1,2,2,3
288,1,RATING_BLOCK,4,RATING_TASK,289,29,0,0,0,0,real,0,0,4,4573,1,1,2,2,3
289,1,RATING_BLOCK,4,RATING_TASK,290,5,0,0,0,0,344,0,0,3,940,1,1,2,2,3
290,1,RATING_BLOCK,4,RATING_TASK,291,23,0,0,0,0,60000,0,0,3,1923,1,1,2,2,3
291,1,RATING_BLOCK,4,RATING_TASK,292,27,0,0,0,0,real,0,0,4,7333,1,1,2,2,3
292,1,RATING_BLOCK,4,RATING_TASK,293,14,0,0,0,0,7954,0,0,3,1164,1,1,2,2,3
293,1,RATING_BLOCK,4,RATING_TASK,294,28,0,0,0,0,real,0,0,4,2020,1,1,2,2,3
294,1,RATING_BLOCK,4,RATING_TASK,295,11,0,0,0,0,7954,0,0,4,892,1,1,2,2,3
295,1,RATING_BLOCK,4,RATING_TASK,296,17,0,0,0,0,24440,0,0,4,1213,1,1,2,2,3
296,1,RATING_BLOCK,4,RATING_TASK,297,19,0,0,0,0,24440,0,0,2,1782,1,1,2,2,3
297,1,RATING_BLOCK,4,RATING_TASK,298,7,0,0,0,0,1055,0,0,3,1045,1,1,2,2,3
298,1,RATING_BLOCK,4,RATING_TASK,299,4,0,0,0,0,344,0,0,3,1084,1,1,2,2,3
299,1,RATING_BLOCK,4,RATING_TASK,300,22,0,0,0,0,60000,0,0,3,5565,1,1,2,2,3
270,1,RATING_BLOCK,4,RATING_TASK,271,11,0,0,0,0,7954,0,0,2,3626,1,2,2,2,3
271,1,RATING_BLOCK,4,RATING_TASK,272,16,0,0,0,0,24440,0,0,2,5368,1,2,2,2,3
272,1,RATING_BLOCK,4,RATING_TASK,273,27,0,0,0,0,real,0,0,5,3999,1,2,2,2,3
273,1,RATING_BLOCK,4,RATING_TASK,274,24,0,0,0,0,60000,0,0,2,6013,1,2,2,2,3
274,1,RATING_BLOCK,4,RATING_TASK,275,8,0,0,0,0,1055,0,0,1,1365,1,2,2,2,3
275,1,RATING_BLOCK,4,RATING_TASK,276,25,0,0,0,0,60000,0,0,5,1882,1,2,2,2,3
276,1,RATING_BLOCK,4,RATING_TASK,277,23,0,0,0,0,60000,0,0,3,5628,1,2,2,2,3
277,1,RATING_BLOCK,4,RATING_TASK,278,5,0,0,0,0,344,0,0,1,1117,1,2,2,2,3
278,1,RATING_BLOCK,4,RATING_TASK,279,18,0,0,0,0,24440,0,0,2,3351,1,2,2,2,3
279,1,RATING_BLOCK,4,RATING_TASK,280,22,0,0,0,0,60000,0,0,5,2823,1,2,2,2,3
280,1,RATING_BLOCK,4,RATING_TASK,281,21,0,0,0,0,60000,0,0,4,5099,1,2,2,2,3
281,1,RATING_BLOCK,4,RATING_TASK,282,26,0,0,0,0,real,0,0,5,1477,1,2,2,2,3
282,1,RATING_BLOCK,4,RATING_TASK,283,12,0,0,0,0,7954,0,0,1,3277,1,2,2,2,3
283,1,RATING_BLOCK,4,RATING_TASK,284,17,0,0,0,0,24440,0,0,2,3070,1,2,2,2,3
284,1,RATING_BLOCK,4,RATING_TASK,285,2,0,0,0,0,344,0,0,1,1107,1,2,2,2,3
285,1,RATING_BLOCK,4,RATING_TASK,286,30,0,0,0,0,real,0,0,5,1884,1,2,2,2,3
286,1,RATING_BLOCK,4,RATING_TASK,287,28,0,0,0,0,real,0,0,5,1388,1,2,2,2,3
287,1,RATING_BLOCK,4,RATING_TASK,288,15,0,0,0,0,7954,0,0,2,2770,1,2,2,2,3
288,1,RATING_BLOCK,4,RATING_TASK,289,4,0,0,0,0,344,0,0,1,1095,1,2,2,2,3
289,1,RATING_BLOCK,4,RATING_TASK,290,7,0,0,0,0,1055,0,0,2,1763,1,2,2,2,3
290,1,RATING_BLOCK,4,RATING_TASK,291,9,0,0,0,0,1055,0,0,2,1003,1,2,2,2,3
291,1,RATING_BLOCK,4,RATING_TASK,292,20,0,0,0,0,24440,0,0,1,2699,1,2,2,2,3
292,1,RATING_BLOCK,4,RATING_TASK,293,1,0,0,0,0,344,0,0,1,811,1,2,2,2,3
293,1,RATING_BLOCK,4,RATING_TASK,294,6,0,0,0,0,1055,0,0,1,2311,1,2,2,2,3
294,1,RATING_BLOCK,4,RATING_TASK,295,14,0,0,0,0,7954,0,0,3,9865,1,2,2,2,3
295,1,RATING_BLOCK,4,RATING_TASK,296,10,0,0,0,0,1055,0,0,2,2206,1,2,2,2,3
296,1,RATING_BLOCK,4,RATING_TASK,297,3,0,0,0,0,344,0,0,1,1515,1,2,2,2,3
297,1,RATING_BLOCK,4,RATING_TASK,298,13,0,0,0,0,7954,0,0,4,3975,1,2,2,2,3
298,1,RATING_BLOCK,4,RATING_TASK,299,19,0,0,0,0,24440,0,0,5,3937,1,2,2,2,3
299,1,RATING_BLOCK,4,RATING_TASK,300,29,0,0,0,0,real,0,0,5,1304,1,2,2,2,3
30,2,RATING_BLOCK,3,RATING_TASK,31,8,0,0,0,0,1055,0,0,1,2108,1,3,2,2,3
31,2,RATING_BLOCK,3,RATING_TASK,32,2,0,0,0,0,344,0,0,1,1229,1,3,2,2,3
32,2,RATING_BLOCK,3,RATING_TASK,33,4,0,0,0,0,344,0,0,1,841,1,3,2,2,3
33,2,RATING_BLOCK,3,RATING_TASK,34,19,0,0,0,0,24440,0,0,2,2884,1,3,2,2,3
34,2,RATING_BLOCK,3,RATING_TASK,35,21,0,0,0,0,60000,0,0,2,3978,1,3,2,2,3
35,2,RATING_BLOCK,3,RATING_TASK,36,27,0,0,0,0,real,0,0,3,2336,1,3,2,2,3
36,2,RATING_BLOCK,3,RATING_TASK,37,7,0,0,0,0,1055,0,0,1,1712,1,3,2,2,3
37,2,RATING_BLOCK,3,RATING_TASK,38,28,0,0,0,0,real,0,0,5,1953,1,3,2,2,3
38,2,RATING_BLOCK,3,RATING_TASK,39,6,0,0,0,0,1055,0,0,1,2111,1,3,2,2,3
39,2,RATING_BLOCK,3,RATING_TASK,40,13,0,0,0,0,7954,0,0,2,2951,1,3,2,2,3
40,2,RATING_BLOCK,3,RATING_TASK,41,20,0,0,0,0,24440,0,0,2,3725,1,3,2,2,3
41,2,RATING_BLOCK,3,RATING_TASK,42,26,0,0,0,0,real,0,0,4,3168,1,3,2,2,3
42,2,RATING_BLOCK,3,RATING_TASK,43,14,0,0,0,0,7954,0,0,1,1495,1,3,2,2,3
43,2,RATING_BLOCK,3,RATING_TASK,44,17,0,0,0,0,24440,0,0,2,3925,1,3,2,2,3
44,2,RATING_BLOCK,3,RATING_TASK,45,3,0,0,0,0,344,0,0,1,979,1,3,2,2,3
45,2,RATING_BLOCK,3,RATING_TASK,46,29,0,0,0,0,real,0,0,5,2014,1,3,2,2,3
46,2,RATING_BLOCK,3,RATING_TASK,47,23,0,0,0,0,60000,0,0,2,5523,1,3,2,2,3
47,2,RATING_BLOCK,3,RATING_TASK,48,16,0,0,0,0,24440,0,0,1,2044,1,3,2,2,3
48,2,RATING_BLOCK,3,RATING_TASK,49,11,0,0,0,0,7954,0,0,1,1226,1,3,2,2,3
49,2,RATING_BLOCK,3,RATING_TASK,50,22,0,0,0,0,60000,0,0,2,1691,1,3,2,2,3
50,2,RATING_BLOCK,3,RATING_TASK,51,25,0,0,0,0,60000,0,0,2,3964,1,3,2,2,3
51,2,RATING_BLOCK,3,RATING_TASK,52,30,0,0,0,0,real,0,0,5,2666,1,3,2,2,3
52,2,RATING_BLOCK,3,RATING_TASK,53,10,0,0,0,0,1055,0,0,1,1908,1,3,2,2,3
53,2,RATING_BLOCK,3,RATING_TASK,54,24,0,0,0,0,60000,0,0,2,2831,1,3,2,2,3
54,2,RATING_BLOCK,3,RATING_TASK,55,5,0,0,0,0,344,0,0,1,955,1,3,2,2,3
55,2,RATING_BLOCK,3,RATING_TASK,56,12,0,0,0,0,7954,0,0,2,1721,1,3,2,2,3
56,2,RATING_BLOCK,3,RATING_TASK,57,18,0,0,0,0,24440,0,0,2,1751,1,3,2,2,3
57,2,RATING_BLOCK,3,RATING_TASK,58,9,0,0,0,0,1055,0,0,2,2537,1,3,2,2,3
58,2,RATING_BLOCK,3,RATING_TASK,59,1,0,0,0,0,344,0,0,1,1279,1,3,2,2,3
59,2,RATING_BLOCK,3,RATING_TASK,60,15,0,0,0,0,7954,0,0,2,2615,1,3,2,2,3
270,1,RATING_BLOCK,4,RATING_TASK,271,27,0,0,0,0,real,0,0,3,6413,1,4,2,2,3
271,1,RATING_BLOCK,4,RATING_TASK,272,2,0,0,0,0,344,0,0,1,3754,1,4,2,2,3
272,1,RATING_BLOCK,4,RATING_TASK,273,18,0,0,0,0,24440,0,0,4,7420,1,4,2,2,3
273,1,RATING_BLOCK,4,RATING_TASK,274,13,0,0,0,0,7954,0,0,3,3261,1,4,2,2,3
274,1,RATING_BLOCK,4,RATING_TASK,275,5,0,0,0,0,344,0,0,2,5180,1,4,2,2,3
275,1,RATING_BLOCK,4,RATING_TASK,276,26,0,0,0,0,real,0,0,5,3549,1,4,2,2,3
276,1,RATING_BLOCK,4,RATING_TASK,277,28,0,0,0,0,real,0,0,4,3070,1,4,2,2,3
277,1,RATING_BLOCK,4,RATING_TASK,278,30,0,0,0,0,real,0,0,5,2091,1,4,2,2,3
278,1,RATING_BLOCK,4,RATING_TASK,279,23,0,0,0,0,60000,0,0,3,3023,1,4,2,2,3
279,1,RATING_BLOCK,4,RATING_TASK,280,15,0,0,0,0,7954,0,0,3,4132,1,4,2,2,3
280,1,RATING_BLOCK,4,RATING_TASK,281,12,0,0,0,0,7954,0,0,4,2202,1,4,2,2,3
281,1,RATING_BLOCK,4,RATING_TASK,282,22,0,0,0,0,60000,0,0,5,2968,1,4,2,2,3
282,1,RATING_BLOCK,4,RATING_TASK,283,1,0,0,0,0,344,0,0,1,2484,1,4,2,2,3
283,1,RATING_BLOCK,4,RATING_TASK,284,3,0,0,0,0,344,0,0,1,822,1,4,2,2,3
284,1,RATING_BLOCK,4,RATING_TASK,285,6,0,0,0,0,1055,0,0,2,4022,1,4,2,2,3
285,1,RATING_BLOCK,4,RATING_TASK,286,8,0,0,0,0,1055,0,0,1,2842,1,4,2,2,3
286,1,RATING_BLOCK,4,RATING_TASK,287,16,0,0,0,0,24440,0,0,4,2246,1,4,2,2,3
287,1,RATING_BLOCK,4,RATING_TASK,288,29,0,0,0,0,real,0,0,5,1887,1,4,2,2,3
288,1,RATING_BLOCK,4,RATING_TASK,289,25,0,0,0,0,60000,0,0,5,968,1,4,2,2,3
289,1,RATING_BLOCK,4,RATING_TASK,290,17,0,0,0,0,24440,0,0,5,2987,1,4,2,2,3
290,1,RATING_BLOCK,4,RATING_TASK,291,4,0,0,0,0,344,0,0,1,1782,1,4,2,2,3
291,1,RATING_BLOCK,4,RATING_TASK,292,14,0,0,0,0,7954,0,0,4,2351,1,4,2,2,3
292,1,RATING_BLOCK,4,RATING_TASK,293,7,0,0,0,0,1055,0,0,3,2056,1,4,2,2,3
293,1,RATING_BLOCK,4,RATING_TASK,294,9,0,0,0,0,1055,0,0,2,3621,1,4,2,2,3
294,1,RATING_BLOCK,4,RATING_TASK,295,21,0,0,0,0,60000,0,0,5,2393,1,4,2,2,3
295,1,RATING_BLOCK,4,RATING_TASK,296,10,0,0,0,0,1055,0,0,2,5179,1,4,2,2,3
296,1,RATING_BLOCK,4,RATING_TASK,297,11,0,0,0,0,7954,0,0,3,2938,1,4,2,2,3
297,1,RATING_BLOCK,4,RATING_TASK,298,24,0,0,0,0,60000,0,0,3,3348,1,4,2,2,3
298,1,RATING_BLOCK,4,RATING_TASK,299,19,0,0,0,0,24440,0,0,5,4280,1,4,2,2,3
299,1,RATING_BLOCK,4,RATING_TASK,300,20,0,0,0,0,24440,0,0,3,5153,1,4,2,2,3
271,1,RATING_BLOCK,4,RATING_TASK,272,9,0,0,0,0,1055,0,0,1,2370,1,5,2,2,3
272,1,RATING_BLOCK,4,RATING_TASK,273,22,0,0,0,0,60000,0,0,3,8524,1,5,2,2,3
273,1,RATING_BLOCK,4,RATING_TASK,274,10,0,0,0,0,1055,0,0,1,1464,1,5,2,2,3
274,1,RATING_BLOCK,4,RATING_TASK,275,30,0,0,0,0,real,0,0,4,2341,1,5,2,2,3
275,1,RATING_BLOCK,4,RATING_TASK,276,1,0,0,0,0,344,0,0,1,1525,1,5,2,2,3
276,1,RATING_BLOCK,4,RATING_TASK,277,28,0,0,0,0,real,0,0,5,2203,1,5,2,2,3
277,1,RATING_BLOCK,4,RATING_TASK,278,11,0,0,0,0,7954,0,0,2,4745,1,5,2,2,3
278,1,RATING_BLOCK,4,RATING_TASK,279,3,0,0,0,0,344,0,0,1,1178,1,5,2,2,3
279,1,RATING_BLOCK,4,RATING_TASK,280,18,0,0,0,0,24440,0,0,2,2162,1,5,2,2,3
280,1,RATING_BLOCK,4,RATING_TASK,281,26,0,0,0,0,real,0,0,5,3629,1,5,2,2,3
281,1,RATING_BLOCK,4,RATING_TASK,282,16,0,0,0,0,24440,0,0,2,5971,1,5,2,2,3
282,1,RATING_BLOCK,4,RATING_TASK,283,27,0,0,0,0,real,0,0,4,2403,1,5,2,2,3
283,1,RATING_BLOCK,4,RATING_TASK,284,20,0,0,0,0,24440,0,0,2,1374,1,5,2,2,3
284,1,RATING_BLOCK,4,RATING_TASK,285,13,0,0,0,0,7954,0,0,3,2752,1,5,2,2,3
285,1,RATING_BLOCK,4,RATING_TASK,286,5,0,0,0,0,344,0,0,1,1294,1,5,2,2,3
286,1,RATING_BLOCK,4,RATING_TASK,287,7,0,0,0,0,1055,0,0,1,1633,1,5,2,2,3
287,1,RATING_BLOCK,4,RATING_TASK,288,15,0,0,0,0,7954,0,0,1,1519,1,5,2,2,3
288,1,RATING_BLOCK,4,RATING_TASK,289,12,0,0,0,0,7954,0,0,2,2145,1,5,2,2,3
289,1,RATING_BLOCK,4,RATING_TASK,290,25,0,0,0,0,60000,0,0,2,4616,1,5,2,2,3
290,1,RATING_BLOCK,4,RATING_TASK,291,21,0,0,0,0,60000,0,0,4,2549,1,5,2,2,3
291,1,RATING_BLOCK,4,RATING_TASK,292,14,0,0,0,0,7954,0,0,2,1236,1,5,2,2,3
292,1,RATING_BLOCK,4,RATING_TASK,293,23,0,0,0,0,60000,0,0,4,2493,1,5,2,2,3
293,1,RATING_BLOCK,4,RATING_TASK,294,19,0,0,0,0,24440,0,0,3,2094,1,5,2,2,3
294,1,RATING_BLOCK,4,RATING_TASK,295,29,0,0,0,0,real,0,0,4,1308,1,5,2,2,3
295,1,RATING_BLOCK,4,RATING_TASK,296,6,0,0,0,0,1055,0,0,1,1058,1,5,2,2,3
296,1,RATING_BLOCK,4,RATING_TASK,297,24,0,0,0,0,60000,0,0,1,1925,1,5,2,2,3
297,1,RATING_BLOCK,4,RATING_TASK,298,2,0,0,0,0,344,0,0,1,595,1,5,2,2,3
298,1,RATING_BLOCK,4,RATING_TASK,299,8,0,0,0,0,1055,0,0,1,693,1,5,2,2,3
299,1,RATING_BLOCK,4,RATING_TASK,300,4,0,0,0,0,344,0,0,1,546,1,5,2,2,3
270,1,RATING_BLOCK,4,RATING_TASK,271,17,0,0,0,0,24440,0,0,3,5189,1,6,2,2,2
271,1,RATING_BLOCK,4,RATING_TASK,272,3,0,0,0,0,344,0,0,1,2122,1,6,2,2,2
272,1,RATING_BLOCK,4,RATING_TASK,273,30,0,0,0,0,real,0,0,5,2163,1,6,2,2,2
273,1,RATING_BLOCK,4,RATING_TASK,274,26,0,0,0,0,real,0,0,4,2816,1,6,2,2,2
274,1,RATING_BLOCK,4,RATING_TASK,275,22,0,0,0,0,60000,0,0,3,3913,1,6,2,2,2
275,1,RATING_BLOCK,4,RATING_TASK,276,9,0,0,0,0,1055,0,0,2,1916,1,6,2,2,2
276,1,RATING_BLOCK,4,RATING_TASK,277,10,0,0,0,0,1055,0,0,1,1403,1,6,2,2,2
277,1,RATING_BLOCK,4,RATING_TASK,278,18,0,0,0,0,24440,0,0,2,1755,1,6,2,2,2
278,1,RATING_BLOCK,4,RATING_TASK,279,21,0,0,0,0,60000,0,0,3,3698,1,6,2,2,2
279,1,RATING_BLOCK,4,RATING_TASK,280,5,0,0,0,0,344,0,0,1,2035,1,6,2,2,2
280,1,RATING_BLOCK,4,RATING_TASK,281,2,0,0,0,0,344,0,0,1,891,1,6,2,2,2
281,1,RATING_BLOCK,4,RATING_TASK,282,1,0,0,0,0,344,0,0,1,652,1,6,2,2,2
282,1,RATING_BLOCK,4,RATING_TASK,283,14,0,0,0,0,7954,0,0,3,5776,1,6,2,2,2
283,1,RATING_BLOCK,4,RATING_TASK,284,24,0,0,0,0,60000,0,0,3,3427,1,6,2,2,2
284,1,RATING_BLOCK,4,RATING_TASK,285,20,0,0,0,0,24440,0,0,1,2723,1,6,2,2,2
285,1,RATING_BLOCK,4,RATING_TASK,286,25,0,0,0,0,60000,0,0,2,2125,1,6,2,2,2
286,1,RATING_BLOCK,4,RATING_TASK,287,29,0,0,0,0,real,0,0,5,1620,1,6,2,2,2
287,1,RATING_BLOCK,4,RATING_TASK,288,7,0,0,0,0,1055,0,0,2,2442,1,6,2,2,2
288,1,RATING_BLOCK,4,RATING_TASK,289,15,0,0,0,0,7954,0,0,2,1786,1,6,2,2,2
289,1,RATING_BLOCK,4,RATING_TASK,290,23,0,0,0,0,60000,0,0,3,3235,1,6,2,2,2
290,1,RATING_BLOCK,4,RATING_TASK,291,27,0,0,0,0,real,0,0,4,2434,1,6,2,2,2
291,1,RATING_BLOCK,4,RATING_TASK,292,8,0,0,0,0,1055,0,0,1,1762,1,6,2,2,2
292,1,RATING_BLOCK,4,RATING_TASK,293,4,0,0,0,0,344,0,0,1,764,1,6,2,2,2
293,1,RATING_BLOCK,4,RATING_TASK,294,28,0,0,0,0,real,0,0,4,4285,1,6,2,2,2
294,1,RATING_BLOCK,4,RATING_TASK,295,19,0,0,0,0,24440,0,0,3,2522,1,6,2,2,2
295,1,RATING_BLOCK,4,RATING_TASK,296,13,0,0,0,0,7954,0,0,3,1421,1,6,2,2,2
296,1,RATING_BLOCK,4,RATING_TASK,297,11,0,0,0,0,7954,0,0,2,1249,1,6,2,2,2
297,1,RATING_BLOCK,4,RATING_TASK,298,6,0,0,0,0,1055,0,0,1,972,1,6,2,2,2
298,1,RATING_BLOCK,4,RATING_TASK,299,12,0,0,0,0,7954,0,0,1,899,1,6,2,2,2
299,1,RATING_BLOCK,4,RATING_TASK,300,16,0,0,0,0,24440,0,0,1,945,1,6,2,2,2
270,1,RATING_BLOCK,4,RATING_TASK,271,27,0,0,0,0,real,0,0,1,4927,1,7,2,2,4
271,1,RATING_BLOCK,4,RATING_TASK,272,15,0,0,0,0,7954,0,0,2,3462,1,7,2,2,4
272,1,RATING_BLOCK,4,RATING_TASK,273,2,0,0,0,0,344,0,0,1,950,1,7,2,2,4
273,1,RATING_BLOCK,4,RATING_TASK,274,9,0,0,0,0,1055,0,0,1,1115,1,7,2,2,4
274,1,RATING_BLOCK,4,RATING_TASK,275,22,0,0,0,0,60000,0,0,4,3154,1,7,2,2,4
275,1,RATING_BLOCK,4,RATING_TASK,276,6,0,0,0,0,1055,0,0,1,1185,1,7,2,2,4
276,1,RATING_BLOCK,4,RATING_TASK,277,23,0,0,0,0,60000,0,0,3,1934,1,7,2,2,4
277,1,RATING_BLOCK,4,RATING_TASK,278,12,0,0,0,0,7954,0,0,2,1600,1,7,2,2,4
278,1,RATING_BLOCK,4,RATING_TASK,279,5,0,0,0,0,344,0,0,1,1124,1,7,2,2,4
279,1,RATING_BLOCK,4,RATING_TASK,280,19,0,0,0,0,24440,0,0,2,1382,1,7,2,2,4
280,1,RATING_BLOCK,4,RATING_TASK,281,24,0,0,0,0,60000,0,0,2,961,1,7,2,2,4
281,1,RATING_BLOCK,4,RATING_TASK,282,14,0,0,0,0,7954,0,0,2,916,1,7,2,2,4
282,1,RATING_BLOCK,4,RATING_TASK,283,13,0,0,0,0,7954,0,0,2,585,1,7,2,2,4
283,1,RATING_BLOCK,4,RATING_TASK,284,20,0,0,0,0,24440,0,0,1,1529,1,7,2,2,4
284,1,RATING_BLOCK,4,RATING_TASK,285,16,0,0,0,0,24440,0,0,1,822,1,7,2,2,4
285,1,RATING_BLOCK,4,RATING_TASK,286,26,0,0,0,0,real,0,0,4,2053,1,7,2,2,4
286,1,RATING_BLOCK,4,RATING_TASK,287,28,0,0,0,0,real,0,0,5,1692,1,7,2,2,4
287,1,RATING_BLOCK,4,RATING_TASK,288,3,0,0,0,0,344,0,0,1,996,1,7,2,2,4
288,1,RATING_BLOCK,4,RATING_TASK,289,1,0,0,0,0,344,0,0,1,477,1,7,2,2,4
289,1,RATING_BLOCK,4,RATING_TASK,290,7,0,0,0,0,1055,0,0,1,445,1,7,2,2,4
290,1,RATING_BLOCK,4,RATING_TASK,291,29,0,0,0,0,real,0,0,4,1081,1,7,2,2,4
291,1,RATING_BLOCK,4,RATING_TASK,292,8,0,0,0,0,1055,0,0,1,816,1,7,2,2,4
292,1,RATING_BLOCK,4,RATING_TASK,293,18,0,0,0,0,24440,0,0,2,1477,1,7,2,2,4
293,1,RATING_BLOCK,4,RATING_TASK,294,25,0,0,0,0,60000,0,0,2,1081,1,7,2,2,4
294,1,RATING_BLOCK,4,RATING_TASK,295,17,0,0,0,0,24440,0,0,2,838,1,7,2,2,4
295,1,RATING_BLOCK,4,RATING_TASK,296,4,0,0,0,0,344,0,0,1,941,1,7,2,2,4
296,1,RATING_BLOCK,4,RATING_TASK,297,30,0,0,0,0,real,0,0,5,2025,1,7,2,2,4
297,1,RATING_BLOCK,4,RATING_TASK,298,10,0,0,0,0,1055,0,0,1,1043,1,7,2,2,4
298,1,RATING_BLOCK,4,RATING_TASK,299,21,0,0,0,0,60000,0,0,3,1276,1,7,2,2,4
299,1,RATING_BLOCK,4,RATING_TASK,300,11,0,0,0,0,7954,0,0,2,1497,1,7,2,2,4
270,1,RATING_BLOCK,4,RATING_TASK,271,16,0,0,0,0,24440,0,0,2,4380,1,8,2,2,3
271,1,RATING_BLOCK,4,RATING_TASK,272,30,0,0,0,0,real,0,0,5,4450,1,8,2,2,3
272,1,RATING_BLOCK,4,RATING_TASK,273,11,0,0,0,0,7954,0,0,1,1320,1,8,2,2,3
273,1,RATING_BLOCK,4,RATING_TASK,274,7,0,0,0,0,1055,0,0,1,668,1,8,2,2,3
274,1,RATING_BLOCK,4,RATING_TASK,275,25,0,0,0,0,60000,0,0,3,3437,1,8,2,2,3
275,1,RATING_BLOCK,4,RATING_TASK,276,2,0,0,0,0,344,0,0,1,2184,1,8,2,2,3
276,1,RATING_BLOCK,4,RATING_TASK,277,19,0,0,0,0,24440,0,0,2,3757,1,8,2,2,3
277,1,RATING_BLOCK,4,RATING_TASK,278,4,0,0,0,0,344,0,0,1,1266,1,8,2,2,3
278,1,RATING_BLOCK,4,RATING_TASK,279,17,0,0,0,0,24440,0,0,2,2869,1,8,2,2,3
279,1,RATING_BLOCK,4,RATING_TASK,280,24,0,0,0,0,60000,0,0,1,1586,1,8,2,2,3
280,1,RATING_BLOCK,4,RATING_TASK,281,10,0,0,0,0,1055,0,0,1,820,1,8,2,2,3
281,1,RATING_BLOCK,4,RATING_TASK,282,5,0,0,0,0,344,0,0,1,651,1,8,2,2,3
282,1,RATING_BLOCK,4,RATING_TASK,283,14,0,0,0,0,7954,0,0,2,2429,1,8,2,2,3
283,1,RATING_BLOCK,4,RATING_TASK,284,22,0,0,0,0,60000,0,0,3,6749,1,8,2,2,3
284,1,RATING_BLOCK,4,RATING_TASK,285,21,0,0,0,0,60000,0,0,2,9617,1,8,2,2,3
285,1,RATING_BLOCK,4,RATING_TASK,286,18,0,0,0,0,24440,0,0,2,1784,1,8,2,2,3
286,1,RATING_BLOCK,4,RATING_TASK,287,13,0,0,0,0,7954,0,0,2,2979,1,8,2,2,3
287,1,RATING_BLOCK,4,RATING_TASK,288,26,0,0,0,0,real,0,0,5,6531,1,8,2,2,3
288,1,RATING_BLOCK,4,RATING_TASK,289,27,0,0,0,0,real,0,0,5,7273,1,8,2,2,3
289,1,RATING_BLOCK,4,RATING_TASK,290,20,0,0,0,0,24440,0,0,2,4194,1,8,2,2,3
290,1,RATING_BLOCK,4,RATING_TASK,291,15,0,0,0,0,7954,0,0,1,1290,1,8,2,2,3
291,1,RATING_BLOCK,4,RATING_TASK,292,9,0,0,0,0,1055,0,0,1,857,1,8,2,2,3
292,1,RATING_BLOCK,4,RATING_TASK,293,8,0,0,0,0,1055,0,0,1,645,1,8,2,2,3
293,1,RATING_BLOCK,4,RATING_TASK,294,3,0,0,0,0,344,0,0,1,634,1,8,2,2,3
294,1,RATING_BLOCK,4,RATING_TASK,295,12,0,0,0,0,7954,0,0,2,1730,1,8,2,2,3
295,1,RATING_BLOCK,4,RATING_TASK,296,23,0,0,0,0,60000,0,0,3,8388,1,8,2,2,3
296,1,RATING_BLOCK,4,RATING_TASK,297,6,0,0,0,0,1055,0,0,1,1341,1,8,2,2,3
297,1,RATING_BLOCK,4,RATING_TASK,298,29,0,0,0,0,real,0,0,5,2491,1,8,2,2,3
298,1,RATING_BLOCK,4,RATING_TASK,299,1,0,0,0,0,344,0,0,1,1020,1,8,2,2,3
299,1,RATING_BLOCK,4,RATING_TASK,300,28,0,0,0,0,real,0,0,5,2556,1,8,2,2,3
270,1,RATING_BLOCK,4,RATING_TASK,271,29,0,0,0,0,real,0,0,5,6563,1,9,2,2,3
271,1,RATING_BLOCK,4,RATING_TASK,272,3,0,0,0,0,344,0,0,1,1476,1,9,2,2,3
272,1,RATING_BLOCK,4,RATING_TASK,273,18,0,0,0,0,24440,0,0,2,4495,1,9,2,2,3
273,1,RATING_BLOCK,4,RATING_TASK,274,15,0,0,0,0,7954,0,0,3,3767,1,9,2,2,3
274,1,RATING_BLOCK,4,RATING_TASK,275,21,0,0,0,0,60000,0,0,5,2960,1,9,2,2,3
275,1,RATING_BLOCK,4,RATING_TASK,276,10,0,0,0,0,1055,0,0,1,1201,1,9,2,2,3
276,1,RATING_BLOCK,4,RATING_TASK,277,13,0,0,0,0,7954,0,0,2,1627,1,9,2,2,3
277,1,RATING_BLOCK,4,RATING_TASK,278,22,0,0,0,0,60000,0,0,4,2082,1,9,2,2,3
278,1,RATING_BLOCK,4,RATING_TASK,279,30,0,0,0,0,real,0,0,5,1876,1,9,2,2,3
279,1,RATING_BLOCK,4,RATING_TASK,280,9,0,0,0,0,1055,0,0,1,1149,1,9,2,2,3
280,1,RATING_BLOCK,4,RATING_TASK,281,2,0,0,0,0,344,0,0,1,914,1,9,2,2,3
281,1,RATING_BLOCK,4,RATING_TASK,282,1,0,0,0,0,344,0,0,1,551,1,9,2,2,3
282,1,RATING_BLOCK,4,RATING_TASK,283,17,0,0,0,0,24440,0,0,2,2411,1,9,2,2,3
283,1,RATING_BLOCK,4,RATING_TASK,284,24,0,0,0,0,60000,0,0,4,3867,1,9,2,2,3
284,1,RATING_BLOCK,4,RATING_TASK,285,27,0,0,0,0,real,0,0,5,1395,1,9,2,2,3
285,1,RATING_BLOCK,4,RATING_TASK,286,19,0,0,0,0,24440,0,0,3,3554,1,9,2,2,3
286,1,RATING_BLOCK,4,RATING_TASK,287,12,0,0,0,0,7954,0,0,2,1514,1,9,2,2,3
287,1,RATING_BLOCK,4,RATING_TASK,288,11,0,0,0,0,7954,0,0,2,1355,1,9,2,2,3
288,1,RATING_BLOCK,4,RATING_TASK,289,20,0,0,0,0,24440,0,0,2,1312,1,9,2,2,3
289,1,RATING_BLOCK,4,RATING_TASK,290,8,0,0,0,0,1055,0,0,1,1064,1,9,2,2,3
290,1,RATING_BLOCK,4,RATING_TASK,291,5,0,0,0,0,344,0,0,1,571,1,9,2,2,3
291,1,RATING_BLOCK,4,RATING_TASK,292,25,0,0,0,0,60000,0,0,2,2522,1,9,2,2,3
292,1,RATING_BLOCK,4,RATING_TASK,293,4,0,0,0,0,344,0,0,1,1053,1,9,2,2,3
293,1,RATING_BLOCK,4,RATING_TASK,294,6,0,0,0,0,1055,0,0,1,644,1,9,2,2,3
294,1,RATING_BLOCK,4,RATING_TASK,295,16,0,0,0,0,24440,0,0,1,1122,1,9,2,2,3
295,1,RATING_BLOCK,4,RATING_TASK,296,14,0,0,0,0,7954,0,0,2,2195,1,9,2,2,3
296,1,RATING_BLOCK,4,RATING_TASK,297,7,0,0,0,0,1055,0,0,1,1483,1,9,2,2,3
297,1,RATING_BLOCK,4,RATING_TASK,298,28,0,0,0,0,real,0,0,5,1705,1,9,2,2,3
298,1,RATING_BLOCK,4,RATING_TASK,299,26,0,0,0,0,real,0,0,5,1248,1,9,2,2,3
299,1,RATING_BLOCK,4,RATING_TASK,300,23,0,0,0,0,60000,0,0,4,2212,1,9,2,2,3
271,1,RATING_BLOCK,4,RATING_TASK,272,5,0,0,0,0,344,0,0,1,2484,1,10,2,2,4
272,1,RATING_BLOCK,4,RATING_TASK,273,2,0,0,0,0,344,0,0,1,681,1,10,2,2,4
273,1,RATING_BLOCK,4,RATING_TASK,274,24,0,0,0,0,60000,0,0,4,2339,1,10,2,2,4
274,1,RATING_BLOCK,4,RATING_TASK,275,10,0,0,0,0,1055,0,0,1,1099,1,10,2,2,4
275,1,RATING_BLOCK,4,RATING_TASK,276,9,0,0,0,0,1055,0,0,1,1172,1,10,2,2,4
276,1,RATING_BLOCK,4,RATING_TASK,277,18,0,0,0,0,24440,0,0,3,2684,1,10,2,2,4
277,1,RATING_BLOCK,4,RATING_TASK,278,23,0,0,0,0,60000,0,0,3,2924,1,10,2,2,4
278,1,RATING_BLOCK,4,RATING_TASK,279,28,0,0,0,0,real,0,0,4,1323,1,10,2,2,4
279,1,RATING_BLOCK,4,RATING_TASK,280,20,0,0,0,0,24440,0,0,3,2168,1,10,2,2,4
280,1,RATING_BLOCK,4,RATING_TASK,281,29,0,0,0,0,real,0,0,4,912,1,10,2,2,4
281,1,RATING_BLOCK,4,RATING_TASK,282,3,0,0,0,0,344,0,0,1,1804,1,10,2,2,4
282,1,RATING_BLOCK,4,RATING_TASK,283,15,0,0,0,0,7954,0,0,4,1884,1,10,2,2,4
283,1,RATING_BLOCK,4,RATING_TASK,284,19,0,0,0,0,24440,0,0,4,2412,1,10,2,2,4
284,1,RATING_BLOCK,4,RATING_TASK,285,1,0,0,0,0,344,0,0,1,1108,1,10,2,2,4
285,1,RATING_BLOCK,4,RATING_TASK,286,12,0,0,0,0,7954,0,0,2,2547,1,10,2,2,4
286,1,RATING_BLOCK,4,RATING_TASK,287,11,0,0,0,0,7954,0,0,2,1500,1,10,2,2,4
287,1,RATING_BLOCK,4,RATING_TASK,288,30,0,0,0,0,real,0,0,5,1744,1,10,2,2,4
288,1,RATING_BLOCK,4,RATING_TASK,289,21,0,0,0,0,60000,0,0,5,896,1,10,2,2,4
289,1,RATING_BLOCK,4,RATING_TASK,290,14,0,0,0,0,7954,0,0,3,3389,1,10,2,2,4
290,1,RATING_BLOCK,4,RATING_TASK,291,6,0,0,0,0,1055,0,0,2,1075,1,10,2,2,4
291,1,RATING_BLOCK,4,RATING_TASK,292,8,0,0,0,0,1055,0,0,1,1444,1,10,2,2,4
292,1,RATING_BLOCK,4,RATING_TASK,293,26,0,0,0,0,real,0,0,4,3100,1,10,2,2,4
293,1,RATING_BLOCK,4,RATING_TASK,294,7,0,0,0,0,1055,0,0,1,1531,1,10,2,2,4
294,1,RATING_BLOCK,4,RATING_TASK,295,13,0,0,0,0,7954,0,0,2,1396,1,10,2,2,4
295,1,RATING_BLOCK,4,RATING_TASK,296,27,0,0,0,0,real,0,0,4,1757,1,10,2,2,4
296,1,RATING_BLOCK,4,RATING_TASK,297,17,0,0,0,0,24440,0,0,4,1787,1,10,2,2,4
297,1,RATING_BLOCK,4,RATING_TASK,298,16,0,0,0,0,24440,0,0,4,1981,1,10,2,2,4
298,1,RATING_BLOCK,4,RATING_TASK,299,4,0,0,0,0,344,0,0,2,956,1,10,2,2,4
299,1,RATING_BLOCK,4,RATING_TASK,300,25,0,0,0,0,60000,0,0,4,1917,1,10,2,2,4
270,1,RATING_BLOCK,4,RATING_TASK,271,26,0,0,0,0,real,0,0,2,3798,1,11,2,2,4
271,1,RATING_BLOCK,4,RATING_TASK,272,13,0,0,0,0,7954,0,0,3,7208,1,11,2,2,4
272,1,RATING_BLOCK,4,RATING_TASK,273,9,0,0,0,0,1055,0,0,1,2583,1,11,2,2,4
273,1,RATING_BLOCK,4,RATING_TASK,274,20,0,0,0,0,24440,0,0,2,2479,1,11,2,2,4
274,1,RATING_BLOCK,4,RATING_TASK,275,3,0,0,0,0,344,0,0,1,1182,1,11,2,2,4
275,1,RATING_BLOCK,4,RATING_TASK,276,12,0,0,0,0,7954,0,0,5,2011,1,11,2,2,4
276,1,RATING_BLOCK,4,RATING_TASK,277,19,0,0,0,0,24440,0,0,4,2932,1,11,2,2,4
277,1,RATING_BLOCK,4,RATING_TASK,278,25,0,0,0,0,60000,0,0,3,2380,1,11,2,2,4
278,1,RATING_BLOCK,4,RATING_TASK,279,16,0,0,0,0,24440,0,0,3,2363,1,11,2,2,4
279,1,RATING_BLOCK,4,RATING_TASK,280,22,0,0,0,0,60000,0,0,4,2850,1,11,2,2,4
280,1,RATING_BLOCK,4,RATING_TASK,281,29,0,0,0,0,real,0,0,5,1533,1,11,2,2,4
281,1,RATING_BLOCK,4,RATING_TASK,282,11,0,0,0,0,7954,0,0,5,1457,1,11,2,2,4
282,1,RATING_BLOCK,4,RATING_TASK,283,8,0,0,0,0,1055,0,0,1,1816,1,11,2,2,4
283,1,RATING_BLOCK,4,RATING_TASK,284,5,0,0,0,0,344,0,0,1,870,1,11,2,2,4
284,1,RATING_BLOCK,4,RATING_TASK,285,30,0,0,0,0,real,0,0,5,1876,1,11,2,2,4
285,1,RATING_BLOCK,4,RATING_TASK,286,14,0,0,0,0,7954,0,0,2,1882,1,11,2,2,4
286,1,RATING_BLOCK,4,RATING_TASK,287,1,0,0,0,0,344,0,0,2,1109,1,11,2,2,4
287,1,RATING_BLOCK,4,RATING_TASK,288,28,0,0,0,0,real,0,0,5,1771,1,11,2,2,4
288,1,RATING_BLOCK,4,RATING_TASK,289,27,0,0,0,0,real,0,0,4,4885,1,11,2,2,4
289,1,RATING_BLOCK,4,RATING_TASK,290,18,0,0,0,0,24440,0,0,3,4587,1,11,2,2,4
290,1,RATING_BLOCK,4,RATING_TASK,291,2,0,0,0,0,344,0,0,1,1565,1,11,2,2,4
291,1,RATING_BLOCK,4,RATING_TASK,292,23,0,0,0,0,60000,0,0,4,2164,1,11,2,2,4
292,1,RATING_BLOCK,4,RATING_TASK,293,24,0,0,0,0,60000,0,0,4,2374,1,11,2,2,4
293,1,RATING_BLOCK,4,RATING_TASK,294,6,0,0,0,0,1055,0,0,2,1646,1,11,2,2,4
294,1,RATING_BLOCK,4,RATING_TASK,295,17,0,0,0,0,24440,0,0,2,1456,1,11,2,2,4
295,1,RATING_BLOCK,4,RATING_TASK,296,4,0,0,0,0,344,0,0,1,1429,1,11,2,2,4
296,1,RATING_BLOCK,4,RATING_TASK,297,21,0,0,0,0,60000,0,0,5,1837,1,11,2,2,4
297,1,RATING_BLOCK,4,RATING_TASK,298,15,0,0,0,0,7954,0,0,3,2893,1,11,2,2,4
298,1,RATING_BLOCK,4,RATING_TASK,299,7,0,0,0,0,1055,0,0,2,1977,1,11,2,2,4
299,1,RATING_BLOCK,4,RATING_TASK,300,10,0,0,0,0,1055,0,0,2,802,1,11,2,2,4
270,1,RATING_BLOCK,4,RATING_TASK,271,27,0,0,0,0,real,0,0,4,5531,1,12,2,2,3
271,1,RATING_BLOCK,4,RATING_TASK,272,4,0,0,0,0,344,0,0,2,3201,1,12,2,2,3
272,1,RATING_BLOCK,4,RATING_TASK,273,12,0,0,0,0,7954,0,0,2,1339,1,12,2,2,3
273,1,RATING_BLOCK,4,RATING_TASK,274,20,0,0,0,0,24440,0,0,2,1429,1,12,2,2,3
274,1,RATING_BLOCK,4,RATING_TASK,275,22,0,0,0,0,60000,0,0,4,1424,1,12,2,2,3
275,1,RATING_BLOCK,4,RATING_TASK,276,16,0,0,0,0,24440,0,0,2,1364,1,12,2,2,3
276,1,RATING_BLOCK,4,RATING_TASK,277,28,0,0,0,0,real,0,0,5,1113,1,12,2,2,3
277,1,RATING_BLOCK,4,RATING_TASK,278,11,0,0,0,0,7954,0,0,2,2763,1,12,2,2,3
278,1,RATING_BLOCK,4,RATING_TASK,279,18,0,0,0,0,24440,0,0,2,1372,1,12,2,2,3
279,1,RATING_BLOCK,4,RATING_TASK,280,3,0,0,0,0,344,0,0,1,859,1,12,2,2,3
280,1,RATING_BLOCK,4,RATING_TASK,281,23,0,0,0,0,60000,0,0,5,3055,1,12,2,2,3
281,1,RATING_BLOCK,4,RATING_TASK,282,5,0,0,0,0,344,0,0,1,925,1,12,2,2,3
282,1,RATING_BLOCK,4,RATING_TASK,283,24,0,0,0,0,60000,0,0,3,1712,1,12,2,2,3
283,1,RATING_BLOCK,4,RATING_TASK,284,13,0,0,0,0,7954,0,0,2,1374,1,12,2,2,3
284,1,RATING_BLOCK,4,RATING_TASK,285,8,0,0,0,0,1055,0,0,1,1029,1,12,2,2,3
285,1,RATING_BLOCK,4,RATING_TASK,286,19,0,0,0,0,24440,0,0,3,1505,1,12,2,2,3
286,1,RATING_BLOCK,4,RATING_TASK,287,7,0,0,0,0,1055,0,0,2,954,1,12,2,2,3
287,1,RATING_BLOCK,4,RATING_TASK,288,21,0,0,0,0,60000,0,0,4,1421,1,12,2,2,3
288,1,RATING_BLOCK,4,RATING_TASK,289,10,0,0,0,0,1055,0,0,1,1150,1,12,2,2,3
289,1,RATING_BLOCK,4,RATING_TASK,290,17,0,0,0,0,24440,0,0,4,4456,1,12,2,2,3
290,1,RATING_BLOCK,4,RATING_TASK,291,6,0,0,0,0,1055,0,0,2,1138,1,12,2,2,3
291,1,RATING_BLOCK,4,RATING_TASK,292,9,0,0,0,0,1055,0,0,2,1316,1,12,2,2,3
292,1,RATING_BLOCK,4,RATING_TASK,293,2,0,0,0,0,344,0,0,1,666,1,12,2,2,3
293,1,RATING_BLOCK,4,RATING_TASK,294,14,0,0,0,0,7954,0,0,2,1624,1,12,2,2,3
294,1,RATING_BLOCK,4,RATING_TASK,295,26,0,0,0,0,real,0,0,5,1455,1,12,2,2,3
295,1,RATING_BLOCK,4,RATING_TASK,296,1,0,0,0,0,344,0,0,1,1178,1,12,2,2,3
296,1,RATING_BLOCK,4,RATING_TASK,297,25,0,0,0,0,60000,0,0,3,2161,1,12,2,2,3
297,1,RATING_BLOCK,4,RATING_TASK,298,29,0,0,0,0,real,0,0,5,1447,1,12,2,2,3
298,1,RATING_BLOCK,4,RATING_TASK,299,15,0,0,0,0,7954,0,0,2,1901,1,12,2,2,3
299,1,RATING_BLOCK,4,RATING_TASK,300,30,0,0,0,0,real,0,0,5,2875,1,12,2,2,3
270,1,RATING_BLOCK,4,RATING_TASK,271,21,0,0,0,0,60000,0,0,5,7962,1,13,2,2,4
271,1,RATING_BLOCK,4,RATING_TASK,272,23,0,0,0,0,60000,0,0,3,5875,1,13,2,2,4
272,1,RATING_BLOCK,4,RATING_TASK,273,27,0,0,0,0,real,0,0,4,2529,1,13,2,2,4
273,1,RATING_BLOCK,4,RATING_TASK,274,8,0,0,0,0,1055,0,0,1,2514,1,13,2,2,4
274,1,RATING_BLOCK,4,RATING_TASK,275,1,0,0,0,0,344,0,0,1,711,1,13,2,2,4
275,1,RATING_BLOCK,4,RATING_TASK,276,9,0,0,0,0,1055,0,0,1,882,1,13,2,2,4
276,1,RATING_BLOCK,4,RATING_TASK,277,19,0,0,0,0,24440,0,0,1,648,1,13,2,2,4
277,1,RATING_BLOCK,4,RATING_TASK,278,28,0,0,0,0,real,0,0,4,4494,1,13,2,2,4
278,1,RATING_BLOCK,4,RATING_TASK,279,25,0,0,0,0,60000,0,0,3,3485,1,13,2,2,4
279,1,RATING_BLOCK,4,RATING_TASK,280,30,0,0,0,0,real,0,0,3,1632,1,13,2,2,4
280,1,RATING_BLOCK,4,RATING_TASK,281,10,0,0,0,0,1055,0,0,1,1455,1,13,2,2,4
281,1,RATING_BLOCK,4,RATING_TASK,282,29,0,0,0,0,real,0,0,4,2154,1,13,2,2,4
282,1,RATING_BLOCK,4,RATING_TASK,283,12,0,0,0,0,7954,0,0,1,2123,1,13,2,2,4
283,1,RATING_BLOCK,4,RATING_TASK,284,11,0,0,0,0,7954,0,0,1,753,1,13,2,2,4
284,1,RATING_BLOCK,4,RATING_TASK,285,2,0,0,0,0,344,0,0,1,712,1,13,2,2,4
285,1,RATING_BLOCK,4,RATING_TASK,286,17,0,0,0,0,24440,0,0,3,4666,1,13,2,2,4
286,1,RATING_BLOCK,4,RATING_TASK,287,14,0,0,0,0,7954,0,0,2,1772,1,13,2,2,4
287,1,RATING_BLOCK,4,RATING_TASK,288,6,0,0,0,0,1055,0,0,1,1047,1,13,2,2,4
288,1,RATING_BLOCK,4,RATING_TASK,289,22,0,0,0,0,60000,0,0,3,2115,1,13,2,2,4
289,1,RATING_BLOCK,4,RATING_TASK,290,15,0,0,0,0,7954,0,0,1,1254,1,13,2,2,4
290,1,RATING_BLOCK,4,RATING_TASK,291,7,0,0,0,0,1055,0,0,1,708,1,13,2,2,4
291,1,RATING_BLOCK,4,RATING_TASK,292,26,0,0,0,0,real,0,0,4,2252,1,13,2,2,4
292,1,RATING_BLOCK,4,RATING_TASK,293,4,0,0,0,0,344,0,0,1,1039,1,13,2,2,4
293,1,RATING_BLOCK,4,RATING_TASK,294,5,0,0,0,0,344,0,0,1,721,1,13,2,2,4
294,1,RATING_BLOCK,4,RATING_TASK,295,24,0,0,0,0,60000,0,0,3,2220,1,13,2,2,4
295,1,RATING_BLOCK,4,RATING_TASK,296,20,0,0,0,0,24440,0,0,1,1381,1,13,2,2,4
296,1,RATING_BLOCK,4,RATING_TASK,297,13,0,0,0,0,7954,0,0,1,786,1,13,2,2,4
297,1,RATING_BLOCK,4,RATING_TASK,298,16,0,0,0,0,24440,0,0,1,622,1,13,2,2,4
298,1,RATING_BLOCK,4,RATING_TASK,299,3,0,0,0,0,344,0,0,1,664,1,13,2,2,4
299,1,RATING_BLOCK,4,RATING_TASK,300,18,0,0,0,0,24440,0,0,2,3405,1,13,2,2,4
270,1,RATING_BLOCK,4,RATING_TASK,271,20,0,0,0,0,24440,0,0,3,6609,1,14,2,2,3
271,1,RATING_BLOCK,4,RATING_TASK,272,18,0,0,0,0,24440,0,0,2,2549,1,14,2,2,3
272,1,RATING_BLOCK,4,RATING_TASK,273,27,0,0,0,0,real,0,0,4,1854,1,14,2,2,3
273,1,RATING_BLOCK,4,RATING_TASK,274,22,0,0,0,0,60000,0,0,3,2929,1,14,2,2,3
274,1,RATING_BLOCK,4,RATING_TASK,275,29,0,0,0,0,real,0,0,5,1733,1,14,2,2,3
275,1,RATING_BLOCK,4,RATING_TASK,276,1,0,0,0,0,344,0,0,1,2635,1,14,2,2,3
276,1,RATING_BLOCK,4,RATING_TASK,277,25,0,0,0,0,60000,0,0,3,4323,1,14,2,2,3
277,1,RATING_BLOCK,4,RATING_TASK,278,9,0,0,0,0,1055,0,0,2,1875,1,14,2,2,3
278,1,RATING_BLOCK,4,RATING_TASK,279,13,0,0,0,0,7954,0,0,3,1761,1,14,2,2,3
279,1,RATING_BLOCK,4,RATING_TASK,280,12,0,0,0,0,7954,0,0,2,2426,1,14,2,2,3
280,1,RATING_BLOCK,4,RATING_TASK,281,16,0,0,0,0,24440,0,0,1,1574,1,14,2,2,3
281,1,RATING_BLOCK,4,RATING_TASK,282,4,0,0,0,0,344,0,0,1,1107,1,14,2,2,3
282,1,RATING_BLOCK,4,RATING_TASK,283,7,0,0,0,0,1055,0,0,1,1137,1,14,2,2,3
283,1,RATING_BLOCK,4,RATING_TASK,284,3,0,0,0,0,344,0,0,1,814,1,14,2,2,3
284,1,RATING_BLOCK,4,RATING_TASK,285,5,0,0,0,0,344,0,0,1,740,1,14,2,2,3
285,1,RATING_BLOCK,4,RATING_TASK,286,2,0,0,0,0,344,0,0,1,765,1,14,2,2,3
286,1,RATING_BLOCK,4,RATING_TASK,287,19,0,0,0,0,24440,0,0,3,5095,1,14,2,2,3
287,1,RATING_BLOCK,4,RATING_TASK,288,17,0,0,0,0,24440,0,0,2,2071,1,14,2,2,3
288,1,RATING_BLOCK,4,RATING_TASK,289,15,0,0,0,0,7954,0,0,2,3511,1,14,2,2,3
289,1,RATING_BLOCK,4,RATING_TASK,290,8,0,0,0,0,1055,0,0,1,1665,1,14,2,2,3
290,1,RATING_BLOCK,4,RATING_TASK,291,6,0,0,0,0,1055,0,0,1,1231,1,14,2,2,3
291,1,RATING_BLOCK,4,RATING_TASK,292,26,0,0,0,0,real,0,0,5,2117,1,14,2,2,3
292,1,RATING_BLOCK,4,RATING_TASK,293,23,0,0,0,0,60000,0,0,4,1539,1,14,2,2,3
293,1,RATING_BLOCK,4,RATING_TASK,294,28,0,0,0,0,real,0,0,5,1731,1,14,2,2,3
294,1,RATING_BLOCK,4,RATING_TASK,295,14,0,0,0,0,7954,0,0,2,2558,1,14,2,2,3
295,1,RATING_BLOCK,4,RATING_TASK,296,30,0,0,0,0,real,0,0,5,2191,1,14,2,2,3
296,1,RATING_BLOCK,4,RATING_TASK,297,21,0,0,0,0,60000,0,0,4,1278,1,14,2,2,3
297,1,RATING_BLOCK,4,RATING_TASK,298,24,0,0,0,0,60000,0,0,3,2320,1,14,2,2,3
298,1,RATING_BLOCK,4,RATING_TASK,299,10,0,0,0,0,1055,0,0,2,1447,1,14,2,2,3
299,1,RATING_BLOCK,4,RATING_TASK,300,11,0,0,0,0,7954,0,0,2,1215,1,14,2,2,3
30,2,RATING_BLOCK,3,RATING_TASK,31,24,0,0,0,0,60000,0,0,3,5518,1,15,2,2,4
31,2,RATING_BLOCK,3,RATING_TASK,32,14,0,0,0,0,7954,0,0,2,2272,1,15,2,2,4
32,2,RATING_BLOCK,3,RATING_TASK,33,29,0,0,0,0,real,0,0,5,1743,1,15,2,2,4
33,2,RATING_BLOCK,3,RATING_TASK,34,2,0,0,0,0,344,0,0,1,1272,1,15,2,2,4
34,2,RATING_BLOCK,3,RATING_TASK,35,19,0,0,0,0,24440,0,0,4,2030,1,15,2,2,4
35,2,RATING_BLOCK,3,RATING_TASK,36,28,0,0,0,0,real,0,0,5,1396,1,15,2,2,4
36,2,RATING_BLOCK,3,RATING_TASK,37,11,0,0,0,0,7954,0,0,4,1549,1,15,2,2,4
37,2,RATING_BLOCK,3,RATING_TASK,38,22,0,0,0,0,60000,0,0,4,2697,1,15,2,2,4
38,2,RATING_BLOCK,3,RATING_TASK,39,18,0,0,0,0,24440,0,0,3,1632,1,15,2,2,4
39,2,RATING_BLOCK,3,RATING_TASK,40,4,0,0,0,0,344,0,0,1,1264,1,15,2,2,4
40,2,RATING_BLOCK,3,RATING_TASK,41,27,0,0,0,0,real,0,0,5,1384,1,15,2,2,4
41,2,RATING_BLOCK,3,RATING_TASK,42,1,0,0,0,0,344,0,0,1,1357,1,15,2,2,4
42,2,RATING_BLOCK,3,RATING_TASK,43,20,0,0,0,0,24440,0,0,3,2818,1,15,2,2,4
43,2,RATING_BLOCK,3,RATING_TASK,44,26,0,0,0,0,real,0,0,5,1110,1,15,2,2,4
44,2,RATING_BLOCK,3,RATING_TASK,45,15,0,0,0,0,7954,0,0,2,1704,1,15,2,2,4
45,2,RATING_BLOCK,3,RATING_TASK,46,21,0,0,0,0,60000,0,0,5,1955,1,15,2,2,4
46,2,RATING_BLOCK,3,RATING_TASK,47,3,0,0,0,0,344,0,0,1,1894,1,15,2,2,4
47,2,RATING_BLOCK,3,RATING_TASK,48,23,0,0,0,0,60000,0,0,4,4123,1,15,2,2,4
48,2,RATING_BLOCK,3,RATING_TASK,49,30,0,0,0,0,real,0,0,5,1078,1,15,2,2,4
49,2,RATING_BLOCK,3,RATING_TASK,50,13,0,0,0,0,7954,0,0,3,1466,1,15,2,2,4
50,2,RATING_BLOCK,3,RATING_TASK,51,7,0,0,0,0,1055,0,0,2,1392,1,15,2,2,4
51,2,RATING_BLOCK,3,RATING_TASK,52,16,0,0,0,0,24440,0,0,4,4994,1,15,2,2,4
52,2,RATING_BLOCK,3,RATING_TASK,53,8,0,0,0,0,1055,0,0,3,1389,1,15,2,2,4
53,2,RATING_BLOCK,3,RATING_TASK,54,17,0,0,0,0,24440,0,0,4,2151,1,15,2,2,4
54,2,RATING_BLOCK,3,RATING_TASK,55,5,0,0,0,0,344,0,0,1,1184,1,15,2,2,4
55,2,RATING_BLOCK,3,RATING_TASK,56,6,0,0,0,0,1055,0,0,2,1253,1,15,2,2,4
56,2,RATING_BLOCK,3,RATING_TASK,57,10,0,0,0,0,1055,0,0,2,1529,1,15,2,2,4
57,2,RATING_BLOCK,3,RATING_TASK,58,12,0,0,0,0,7954,0,0,4,1793,1,15,2,2,4
58,2,RATING_BLOCK,3,RATING_TASK,59,25,0,0,0,0,60000,0,0,4,1645,1,15,2,2,4
59,2,RATING_BLOCK,3,RATING_TASK,60,9,0,0,0,0,1055,0,0,3,1861,1,15,2,2,4
30,2,RATING_BLOCK,3,RATING_TASK,31,8,0,0,0,0,1055,0,0,1,5652,1,16,2,2,2
31,2,RATING_BLOCK,3,RATING_TASK,32,11,0,0,0,0,7954,0,0,2,4507,1,16,2,2,2
32,2,RATING_BLOCK,3,RATING_TASK,33,19,0,0,0,0,24440,0,0,3,2853,1,16,2,2,2
33,2,RATING_BLOCK,3,RATING_TASK,34,25,0,0,0,0,60000,0,0,4,2212,1,16,2,2,2
34,2,RATING_BLOCK,3,RATING_TASK,35,6,0,0,0,0,1055,0,0,1,1750,1,16,2,2,2
35,2,RATING_BLOCK,3,RATING_TASK,36,24,0,0,0,0,60000,0,0,4,1898,1,16,2,2,2
36,2,RATING_BLOCK,3,RATING_TASK,37,30,0,0,0,0,real,0,0,4,5992,1,16,2,2,2
37,2,RATING_BLOCK,3,RATING_TASK,38,7,0,0,0,0,1055,0,0,1,1356,1,16,2,2,2
38,2,RATING_BLOCK,3,RATING_TASK,39,28,0,0,0,0,real,0,0,5,2201,1,16,2,2,2
39,2,RATING_BLOCK,3,RATING_TASK,40,2,0,0,0,0,344,0,0,1,1357,1,16,2,2,2
40,2,RATING_BLOCK,3,RATING_TASK,41,14,0,0,0,0,7954,0,0,1,2561,1,16,2,2,2
41,2,RATING_BLOCK,3,RATING_TASK,42,29,0,0,0,0,real,0,0,5,2303,1,16,2,2,2
42,2,RATING_BLOCK,3,RATING_TASK,43,9,0,0,0,0,1055,0,0,1,1403,1,16,2,2,2
43,2,RATING_BLOCK,3,RATING_TASK,44,18,0,0,0,0,24440,0,0,2,5766,1,16,2,2,2
44,2,RATING_BLOCK,3,RATING_TASK,45,22,0,0,0,0,60000,0,0,4,3067,1,16,2,2,2
45,2,RATING_BLOCK,3,RATING_TASK,46,16,0,0,0,0,24440,0,0,5,1234,1,16,2,2,2
46,2,RATING_BLOCK,3,RATING_TASK,47,4,0,0,0,0,344,0,0,1,1390,1,16,2,2,2
47,2,RATING_BLOCK,3,RATING_TASK,48,15,0,0,0,0,7954,0,0,2,1481,1,16,2,2,2
48,2,RATING_BLOCK,3,RATING_TASK,49,27,0,0,0,0,real,0,0,4,1751,1,16,2,2,2
49,2,RATING_BLOCK,3,RATING_TASK,50,17,0,0,0,0,24440,0,0,4,1819,1,16,2,2,2
50,2,RATING_BLOCK,3,RATING_TASK,51,21,0,0,0,0,60000,0,0,2,3180,1,16,2,2,2
51,2,RATING_BLOCK,3,RATING_TASK,52,10,0,0,0,0,1055,0,0,1,1200,1,16,2,2,2
52,2,RATING_BLOCK,3,RATING_TASK,53,13,0,0,0,0,7954,0,0,2,6858,1,16,2,2,2
53,2,RATING_BLOCK,3,RATING_TASK,54,23,0,0,0,0,60000,0,0,4,1616,1,16,2,2,2
54,2,RATING_BLOCK,3,RATING_TASK,55,12,0,0,0,0,7954,0,0,1,1639,1,16,2,2,2
55,2,RATING_BLOCK,3,RATING_TASK,56,26,0,0,0,0,real,0,0,2,1357,1,16,2,2,2
56,2,RATING_BLOCK,3,RATING_TASK,57,20,0,0,0,0,24440,0,0,2,5610,1,16,2,2,2
57,2,RATING_BLOCK,3,RATING_TASK,58,1,0,0,0,0,344,0,0,1,1402,1,16,2,2,2
58,2,RATING_BLOCK,3,RATING_TASK,59,3,0,0,0,0,344,0,0,1,806,1,16,2,2,2
59,2,RATING_BLOCK,3,RATING_TASK,60,5,0,0,0,0,344,0,0,1,671,1,16,2,2,2
30,2,RATING_BLOCK,3,RATING_TASK,31,8,0,0,0,0,1055,0,0,1,1350,1,17,2,2,3
31,2,RATING_BLOCK,3,RATING_TASK,32,17,0,0,0,0,24440,0,0,2,4266,1,17,2,2,3
32,2,RATING_BLOCK,3,RATING_TASK,33,26,0,0,0,0,real,0,0,5,3076,1,17,2,2,3
33,2,RATING_BLOCK,3,RATING_TASK,34,12,0,0,0,0,7954,0,0,1,1374,1,17,2,2,3
34,2,RATING_BLOCK,3,RATING_TASK,35,23,0,0,0,0,60000,0,0,2,1612,1,17,2,2,3
35,2,RATING_BLOCK,3,RATING_TASK,36,18,0,0,0,0,24440,0,0,3,2517,1,17,2,2,3
36,2,RATING_BLOCK,3,RATING_TASK,37,28,0,0,0,0,real,0,0,5,1676,1,17,2,2,3
37,2,RATING_BLOCK,3,RATING_TASK,38,21,0,0,0,0,60000,0,0,4,3684,1,17,2,2,3
38,2,RATING_BLOCK,3,RATING_TASK,39,11,0,0,0,0,7954,0,0,2,1515,1,17,2,2,3
39,2,RATING_BLOCK,3,RATING_TASK,40,24,0,0,0,0,60000,0,0,4,1752,1,17,2,2,3
40,2,RATING_BLOCK,3,RATING_TASK,41,16,0,0,0,0,24440,0,0,2,1667,1,17,2,2,3
41,2,RATING_BLOCK,3,RATING_TASK,42,29,0,0,0,0,real,0,0,4,1792,1,17,2,2,3
42,2,RATING_BLOCK,3,RATING_TASK,43,2,0,0,0,0,344,0,0,1,1207,1,17,2,2,3
43,2,RATING_BLOCK,3,RATING_TASK,44,6,0,0,0,0,1055,0,0,1,1197,1,17,2,2,3
44,2,RATING_BLOCK,3,RATING_TASK,45,30,0,0,0,0,real,0,0,4,2348,1,17,2,2,3
45,2,RATING_BLOCK,3,RATING_TASK,46,25,0,0,0,0,60000,0,0,3,3346,1,17,2,2,3
46,2,RATING_BLOCK,3,RATING_TASK,47,14,0,0,0,0,7954,0,0,2,3000,1,17,2,2,3
47,2,RATING_BLOCK,3,RATING_TASK,48,7,0,0,0,0,1055,0,0,1,1067,1,17,2,2,3
48,2,RATING_BLOCK,3,RATING_TASK,49,27,0,0,0,0,real,0,0,4,2778,1,17,2,2,3
49,2,RATING_BLOCK,3,RATING_TASK,50,10,0,0,0,0,1055,0,0,1,2077,1,17,2,2,3
50,2,RATING_BLOCK,3,RATING_TASK,51,3,0,0,0,0,344,0,0,1,625,1,17,2,2,3
51,2,RATING_BLOCK,3,RATING_TASK,52,20,0,0,0,0,24440,0,0,2,2560,1,17,2,2,3
52,2,RATING_BLOCK,3,RATING_TASK,53,1,0,0,0,0,344,0,0,1,1191,1,17,2,2,3
53,2,RATING_BLOCK,3,RATING_TASK,54,9,0,0,0,0,1055,0,0,1,996,1,17,2,2,3
54,2,RATING_BLOCK,3,RATING_TASK,55,22,0,0,0,0,60000,0,0,4,2181,1,17,2,2,3
55,2,RATING_BLOCK,3,RATING_TASK,56,5,0,0,0,0,344,0,0,1,1159,1,17,2,2,3
56,2,RATING_BLOCK,3,RATING_TASK,57,13,0,0,0,0,7954,0,0,3,2847,1,17,2,2,3
57,2,RATING_BLOCK,3,RATING_TASK,58,19,0,0,0,0,24440,0,0,2,2224,1,17,2,2,3
58,2,RATING_BLOCK,3,RATING_TASK,59,15,0,0,0,0,7954,0,0,2,1496,1,17,2,2,3
59,2,RATING_BLOCK,3,RATING_TASK,60,4,0,0,0,0,344,0,0,1,1060,1,17,2,2,3
271,1,RATING_BLOCK,4,RATING_TASK,272,21,0,0,0,0,60000,0,0,2,6180,1,18,2,2,3
272,1,RATING_BLOCK,4,RATING_TASK,273,8,0,0,0,0,1055,0,0,1,1257,1,18,2,2,3
273,1,RATING_BLOCK,4,RATING_TASK,274,2,0,0,0,0,344,0,0,1,801,1,18,2,2,3
274,1,RATING_BLOCK,4,RATING_TASK,275,16,0,0,0,0,24440,0,0,2,3651,1,18,2,2,3
275,1,RATING_BLOCK,4,RATING_TASK,276,26,0,0,0,0,real,0,0,3,4577,1,18,2,2,3
276,1,RATING_BLOCK,4,RATING_TASK,277,18,0,0,0,0,24440,0,0,2,3493,1,18,2,2,3
277,1,RATING_BLOCK,4,RATING_TASK,278,22,0,0,0,0,60000,0,0,2,3295,1,18,2,2,3
278,1,RATING_BLOCK,4,RATING_TASK,279,29,0,0,0,0,real,0,0,4,2969,1,18,2,2,3
279,1,RATING_BLOCK,4,RATING_TASK,280,14,0,0,0,0,7954,0,0,2,3796,1,18,2,2,3
280,1,RATING_BLOCK,4,RATING_TASK,281,6,0,0,0,0,1055,0,0,1,2290,1,18,2,2,3
281,1,RATING_BLOCK,4,RATING_TASK,282,27,0,0,0,0,real,0,0,5,3482,1,18,2,2,3
282,1,RATING_BLOCK,4,RATING_TASK,283,30,0,0,0,0,real,0,0,5,1476,1,18,2,2,3
283,1,RATING_BLOCK,4,RATING_TASK,284,9,0,0,0,0,1055,0,0,1,1155,1,18,2,2,3
284,1,RATING_BLOCK,4,RATING_TASK,285,10,0,0,0,0,1055,0,0,1,2887,1,18,2,2,3
285,1,RATING_BLOCK,4,RATING_TASK,286,24,0,0,0,0,60000,0,0,2,2827,1,18,2,2,3
286,1,RATING_BLOCK,4,RATING_TASK,287,1,0,0,0,0,344,0,0,1,1156,1,18,2,2,3
287,1,RATING_BLOCK,4,RATING_TASK,288,4,0,0,0,0,344,0,0,1,877,1,18,2,2,3
288,1,RATING_BLOCK,4,RATING_TASK,289,25,0,0,0,0,60000,0,0,3,5773,1,18,2,2,3
289,1,RATING_BLOCK,4,RATING_TASK,290,20,0,0,0,0,24440,0,0,2,3195,1,18,2,2,3
290,1,RATING_BLOCK,4,RATING_TASK,291,12,0,0,0,0,7954,0,0,2,3977,1,18,2,2,3
291,1,RATING_BLOCK,4,RATING_TASK,292,23,0,0,0,0,60000,0,0,2,4599,1,18,2,2,3
292,1,RATING_BLOCK,4,RATING_TASK,293,11,0,0,0,0,7954,0,0,1,3224,1,18,2,2,3
293,1,RATING_BLOCK,4,RATING_TASK,294,5,0,0,0,0,344,0,0,1,1311,1,18,2,2,3
294,1,RATING_BLOCK,4,RATING_TASK,295,15,0,0,0,0,7954,0,0,2,3917,1,18,2,2,3
295,1,RATING_BLOCK,4,RATING_TASK,296,17,0,0,0,0,24440,0,0,1,5741,1,18,2,2,3
296,1,RATING_BLOCK,4,RATING_TASK,297,19,0,0,0,0,24440,0,0,2,1862,1,18,2,2,3
297,1,RATING_BLOCK,4,RATING_TASK,298,28,0,0,0,0,real,0,0,5,4311,1,18,2,2,3
298,1,RATING_BLOCK,4,RATING_TASK,299,3,0,0,0,0,344,0,0,1,3163,1,18,2,2,3
299,1,RATING_BLOCK,4,RATING_TASK,300,7,0,0,0,0,1055,0,0,1,3124,1,18,2,2,3
270,1,RATING_BLOCK,4,RATING_TASK,271,27,0,0,0,0,real,0,0,5,1975,1,19,2,2,3
271,1,RATING_BLOCK,4,RATING_TASK,272,24,0,0,0,0,60000,0,0,4,4882,1,19,2,2,3
272,1,RATING_BLOCK,4,RATING_TASK,273,15,0,0,0,0,7954,0,0,4,2498,1,19,2,2,3
273,1,RATING_BLOCK,4,RATING_TASK,274,17,0,0,0,0,24440,0,0,4,1202,1,19,2,2,3
274,1,RATING_BLOCK,4,RATING_TASK,275,20,0,0,0,0,24440,0,0,3,1939,1,19,2,2,3
275,1,RATING_BLOCK,4,RATING_TASK,276,19,0,0,0,0,24440,0,0,4,1273,1,19,2,2,3
276,1,RATING_BLOCK,4,RATING_TASK,277,5,0,0,0,0,344,0,0,1,3728,1,19,2,2,3
277,1,RATING_BLOCK,4,RATING_TASK,278,22,0,0,0,0,60000,0,0,5,2938,1,19,2,2,3
278,1,RATING_BLOCK,4,RATING_TASK,279,8,0,0,0,0,1055,0,0,2,3315,1,19,2,2,3
279,1,RATING_BLOCK,4,RATING_TASK,280,29,0,0,0,0,real,0,0,5,2762,1,19,2,2,3
280,1,RATING_BLOCK,4,RATING_TASK,281,11,0,0,0,0,7954,0,0,4,2243,1,19,2,2,3
281,1,RATING_BLOCK,4,RATING_TASK,282,21,0,0,0,0,60000,0,0,5,2482,1,19,2,2,3
282,1,RATING_BLOCK,4,RATING_TASK,283,16,0,0,0,0,24440,0,0,5,1106,1,19,2,2,3
283,1,RATING_BLOCK,4,RATING_TASK,284,25,0,0,0,0,60000,0,0,5,690,1,19,2,2,3
284,1,RATING_BLOCK,4,RATING_TASK,285,4,0,0,0,0,344,0,0,1,1626,1,19,2,2,3
285,1,RATING_BLOCK,4,RATING_TASK,286,1,0,0,0,0,344,0,0,1,619,1,19,2,2,3
286,1,RATING_BLOCK,4,RATING_TASK,287,2,0,0,0,0,344,0,0,1,1395,1,19,2,2,3
287,1,RATING_BLOCK,4,RATING_TASK,288,6,0,0,0,0,1055,0,0,1,2170,1,19,2,2,3
288,1,RATING_BLOCK,4,RATING_TASK,289,18,0,0,0,0,24440,0,0,4,5387,1,19,2,2,3
289,1,RATING_BLOCK,4,RATING_TASK,290,12,0,0,0,0,7954,0,0,4,1394,1,19,2,2,3
290,1,RATING_BLOCK,4,RATING_TASK,291,7,0,0,0,0,1055,0,0,2,1898,1,19,2,2,3
291,1,RATING_BLOCK,4,RATING_TASK,292,13,0,0,0,0,7954,0,0,3,1834,1,19,2,2,3
292,1,RATING_BLOCK,4,RATING_TASK,293,10,0,0,0,0,1055,0,0,2,2448,1,19,2,2,3
293,1,RATING_BLOCK,4,RATING_TASK,294,30,0,0,0,0,real,0,0,5,2386,1,19,2,2,3
294,1,RATING_BLOCK,4,RATING_TASK,295,9,0,0,0,0,1055,0,0,1,2563,1,19,2,2,3
295,1,RATING_BLOCK,4,RATING_TASK,296,26,0,0,0,0,real,0,0,5,4034,1,19,2,2,3
296,1,RATING_BLOCK,4,RATING_TASK,297,14,0,0,0,0,7954,0,0,5,874,1,19,2,2,3
297,1,RATING_BLOCK,4,RATING_TASK,298,23,0,0,0,0,60000,0,0,5,833,1,19,2,2,3
298,1,RATING_BLOCK,4,RATING_TASK,299,3,0,0,0,0,344,0,0,1,1235,1,19,2,2,3
299,1,RATING_BLOCK,4,RATING_TASK,300,28,0,0,0,0,real,0,0,5,1394,1,19,2,2,3
30,2,RATING_BLOCK,3,RATING_TASK,31,6,0,0,0,0,1055,0,0,2,4365,1,20,2,2,3
31,2,RATING_BLOCK,3,RATING_TASK,32,10,0,0,0,0,1055,0,0,2,1609,1,20,2,2,3
32,2,RATING_BLOCK,3,RATING_TASK,33,5,0,0,0,0,344,0,0,2,645,1,20,2,2,3
33,2,RATING_BLOCK,3,RATING_TASK,34,8,0,0,0,0,1055,0,0,2,616,1,20,2,2,3
34,2,RATING_BLOCK,3,RATING_TASK,35,2,0,0,0,0,344,0,0,2,786,1,20,2,2,3
35,2,RATING_BLOCK,3,RATING_TASK,36,21,0,0,0,0,60000,0,0,4,1437,1,20,2,2,3
36,2,RATING_BLOCK,3,RATING_TASK,37,9,0,0,0,0,1055,0,0,3,1460,1,20,2,2,3
37,2,RATING_BLOCK,3,RATING_TASK,38,18,0,0,0,0,24440,0,0,4,1194,1,20,2,2,3
38,2,RATING_BLOCK,3,RATING_TASK,39,26,0,0,0,0,real,0,0,4,852,1,20,2,2,3
39,2,RATING_BLOCK,3,RATING_TASK,40,30,0,0,0,0,real,0,0,5,1440,1,20,2,2,3
40,2,RATING_BLOCK,3,RATING_TASK,41,19,0,0,0,0,24440,0,0,4,929,1,20,2,2,3
41,2,RATING_BLOCK,3,RATING_TASK,42,4,0,0,0,0,344,0,0,2,1501,1,20,2,2,3
42,2,RATING_BLOCK,3,RATING_TASK,43,28,0,0,0,0,real,0,0,4,966,1,20,2,2,3
43,2,RATING_BLOCK,3,RATING_TASK,44,16,0,0,0,0,24440,0,0,4,1632,1,20,2,2,3
44,2,RATING_BLOCK,3,RATING_TASK,45,27,0,0,0,0,real,0,0,5,778,1,20,2,2,3
45,2,RATING_BLOCK,3,RATING_TASK,46,1,0,0,0,0,344,0,0,2,1434,1,20,2,2,3
46,2,RATING_BLOCK,3,RATING_TASK,47,24,0,0,0,0,60000,0,0,4,1826,1,20,2,2,3
47,2,RATING_BLOCK,3,RATING_TASK,48,14,0,0,0,0,7954,0,0,5,1709,1,20,2,2,3
48,2,RATING_BLOCK,3,RATING_TASK,49,13,0,0,0,0,7954,0,0,2,1544,1,20,2,2,3
49,2,RATING_BLOCK,3,RATING_TASK,50,11,0,0,0,0,7954,0,0,3,540,1,20,2,2,3
50,2,RATING_BLOCK,3,RATING_TASK,51,20,0,0,0,0,24440,0,0,5,1531,1,20,2,2,3
51,2,RATING_BLOCK,3,RATING_TASK,52,7,0,0,0,0,1055,0,0,3,1472,1,20,2,2,3
52,2,RATING_BLOCK,3,RATING_TASK,53,23,0,0,0,0,60000,0,0,5,1626,1,20,2,2,3
53,2,RATING_BLOCK,3,RATING_TASK,54,15,0,0,0,0,7954,0,0,5,531,1,20,2,2,3
54,2,RATING_BLOCK,3,RATING_TASK,55,12,0,0,0,0,7954,0,0,3,1066,1,20,2,2,3
55,2,RATING_BLOCK,3,RATING_TASK,56,25,0,0,0,0,60000,0,0,3,738,1,20,2,2,3
56,2,RATING_BLOCK,3,RATING_TASK,57,17,0,0,0,0,24440,0,0,4,822,1,20,2,2,3
57,2,RATING_BLOCK,3,RATING_TASK,58,3,0,0,0,0,344,0,0,3,1331,1,20,2,2,3
58,2,RATING_BLOCK,3,RATING_TASK,59,22,0,0,0,0,60000,0,0,5,1162,1,20,2,2,3
59,2,RATING_BLOCK,3,RATING_TASK,60,29,0,0,0,0,real,0,0,4,546,1,20,2,2,3
30,2,RATING_BLOCK,3,RATING_TASK,31,7,0,0,0,0,1055,0,0,2,3406,1,21,2,2,2
31,2,RATING_BLOCK,3,RATING_TASK,32,26,0,0,0,0,real,0,0,2,757,1,21,2,2,2
32,2,RATING_BLOCK,3,RATING_TASK,33,14,0,0,0,0,7954,0,0,2,2764,1,21,2,2,2
33,2,RATING_BLOCK,3,RATING_TASK,34,10,0,0,0,0,1055,0,0,2,3682,1,21,2,2,2
34,2,RATING_BLOCK,3,RATING_TASK,35,27,0,0,0,0,real,0,0,3,3311,1,21,2,2,2
35,2,RATING_BLOCK,3,RATING_TASK,36,4,0,0,0,0,344,0,0,1,1564,1,21,2,2,2
36,2,RATING_BLOCK,3,RATING_TASK,37,20,0,0,0,0,24440,0,0,3,4840,1,21,2,2,2
37,2,RATING_BLOCK,3,RATING_TASK,38,15,0,0,0,0,7954,0,0,2,4483,1,21,2,2,2
38,2,RATING_BLOCK,3,RATING_TASK,39,3,0,0,0,0,344,0,0,1,1914,1,21,2,2,2
39,2,RATING_BLOCK,3,RATING_TASK,40,17,0,0,0,0,24440,0,0,4,9321,1,21,2,2,2
40,2,RATING_BLOCK,3,RATING_TASK,41,13,0,0,0,0,7954,0,0,2,1757,1,21,2,2,2
41,2,RATING_BLOCK,3,RATING_TASK,42,1,0,0,0,0,344,0,0,1,1780,1,21,2,2,2
42,2,RATING_BLOCK,3,RATING_TASK,43,12,0,0,0,0,7954,0,0,3,3882,1,21,2,2,2
43,2,RATING_BLOCK,3,RATING_TASK,44,28,0,0,0,0,real,0,0,3,2478,1,21,2,2,2
44,2,RATING_BLOCK,3,RATING_TASK,45,21,0,0,0,0,60000,0,0,2,4704,1,21,2,2,2
45,2,RATING_BLOCK,3,RATING_TASK,46,5,0,0,0,0,344,0,0,1,1562,1,21,2,2,2
46,2,RATING_BLOCK,3,RATING_TASK,47,23,0,0,0,0,60000,0,0,4,2441,1,21,2,2,2
47,2,RATING_BLOCK,3,RATING_TASK,48,9,0,0,0,0,1055,0,0,2,2792,1,21,2,2,2
48,2,RATING_BLOCK,3,RATING_TASK,49,19,0,0,0,0,24440,0,0,4,2650,1,21,2,2,2
49,2,RATING_BLOCK,3,RATING_TASK,50,24,0,0,0,0,60000,0,0,4,1019,1,21,2,2,2
50,2,RATING_BLOCK,3,RATING_TASK,51,25,0,0,0,0,60000,0,0,3,4890,1,21,2,2,2
51,2,RATING_BLOCK,3,RATING_TASK,52,8,0,0,0,0,1055,0,0,2,1941,1,21,2,2,2
52,2,RATING_BLOCK,3,RATING_TASK,53,18,0,0,0,0,24440,0,0,2,801,1,21,2,2,2
53,2,RATING_BLOCK,3,RATING_TASK,54,11,0,0,0,0,7954,0,0,2,5208,1,21,2,2,2
54,2,RATING_BLOCK,3,RATING_TASK,55,16,0,0,0,0,24440,0,0,3,8900,1,21,2,2,2
55,2,RATING_BLOCK,3,RATING_TASK,56,22,0,0,0,0,60000,0,0,3,2085,1,21,2,2,2
56,2,RATING_BLOCK,3,RATING_TASK,57,6,0,0,0,0,1055,0,0,1,1905,1,21,2,2,2
57,2,RATING_BLOCK,3,RATING_TASK,58,2,0,0,0,0,344,0,0,1,718,1,21,2,2,2
58,2,RATING_BLOCK,3,RATING_TASK,59,29,0,0,0,0,real,0,0,5,9519,1,21,2,2,2
59,2,RATING_BLOCK,3,RATING_TASK,60,30,0,0,0,0,real,0,0,4,1821,1,21,2,2,2
270,1,RATING_BLOCK,4,RATING_TASK,271,6,0,0,0,0,1055,0,0,1,2595,1,22,2,2,1
271,1,RATING_BLOCK,4,RATING_TASK,272,15,0,0,0,0,7954,0,0,1,936,1,22,2,2,1
272,1,RATING_BLOCK,4,RATING_TASK,273,30,0,0,0,0,real,0,0,4,3613,1,22,2,2,1
273,1,RATING_BLOCK,4,RATING_TASK,274,11,0,0,0,0,7954,0,0,2,1916,1,22,2,2,1
274,1,RATING_BLOCK,4,RATING_TASK,275,20,0,0,0,0,24440,0,0,2,3704,1,22,2,2,1
275,1,RATING_BLOCK,4,RATING_TASK,276,18,0,0,0,0,24440,0,0,3,2641,1,22,2,2,1
276,1,RATING_BLOCK,4,RATING_TASK,277,17,0,0,0,0,24440,0,0,5,2843,1,22,2,2,1
277,1,RATING_BLOCK,4,RATING_TASK,278,22,0,0,0,0,60000,0,0,5,1624,1,22,2,2,1
278,1,RATING_BLOCK,4,RATING_TASK,279,3,0,0,0,0,344,0,0,1,1292,1,22,2,2,1
279,1,RATING_BLOCK,4,RATING_TASK,280,23,0,0,0,0,60000,0,0,4,3988,1,22,2,2,1
280,1,RATING_BLOCK,4,RATING_TASK,281,19,0,0,0,0,24440,0,0,2,2401,1,22,2,2,1
281,1,RATING_BLOCK,4,RATING_TASK,282,4,0,0,0,0,344,0,0,1,1042,1,22,2,2,1
282,1,RATING_BLOCK,4,RATING_TASK,283,12,0,0,0,0,7954,0,0,2,1963,1,22,2,2,1
283,1,RATING_BLOCK,4,RATING_TASK,284,10,0,0,0,0,1055,0,0,1,1049,1,22,2,2,1
284,1,RATING_BLOCK,4,RATING_TASK,285,7,0,0,0,0,1055,0,0,1,585,1,22,2,2,1
285,1,RATING_BLOCK,4,RATING_TASK,286,16,0,0,0,0,24440,0,0,5,2013,1,22,2,2,1
286,1,RATING_BLOCK,4,RATING_TASK,287,29,0,0,0,0,real,0,0,5,905,1,22,2,2,1
287,1,RATING_BLOCK,4,RATING_TASK,288,2,0,0,0,0,344,0,0,1,1078,1,22,2,2,1
288,1,RATING_BLOCK,4,RATING_TASK,289,14,0,0,0,0,7954,0,0,2,2717,1,22,2,2,1
289,1,RATING_BLOCK,4,RATING_TASK,290,25,0,0,0,0,60000,0,0,5,3015,1,22,2,2,1
290,1,RATING_BLOCK,4,RATING_TASK,291,26,0,0,0,0,real,0,0,5,758,1,22,2,2,1
291,1,RATING_BLOCK,4,RATING_TASK,292,24,0,0,0,0,60000,0,0,4,3323,1,22,2,2,1
292,1,RATING_BLOCK,4,RATING_TASK,293,21,0,0,0,0,60000,0,0,5,1687,1,22,2,2,1
293,1,RATING_BLOCK,4,RATING_TASK,294,28,0,0,0,0,real,0,0,5,1281,1,22,2,2,1
294,1,RATING_BLOCK,4,RATING_TASK,295,5,0,0,0,0,344,0,0,1,1309,1,22,2,2,1
295,1,RATING_BLOCK,4,RATING_TASK,296,9,0,0,0,0,1055,0,0,1,730,1,22,2,2,1
296,1,RATING_BLOCK,4,RATING_TASK,297,27,0,0,0,0,real,0,0,5,3239,1,22,2,2,1
297,1,RATING_BLOCK,4,RATING_TASK,298,13,0,0,0,0,7954,0,0,4,1829,1,22,2,2,1
298,1,RATING_BLOCK,4,RATING_TASK,299,8,0,0,0,0,1055,0,0,1,1653,1,22,2,2,1
299,1,RATING_BLOCK,4,RATING_TASK,300,1,0,0,0,0,344,0,0,1,629,1,22,2,2,1
270,1,RATING_BLOCK,4,RATING_TASK,271,7,0,0,0,0,1055,0,0,1,3773,1,23,2,2,4
271,1,RATING_BLOCK,4,RATING_TASK,272,26,0,0,0,0,real,0,0,4,4557,1,23,2,2,4
272,1,RATING_BLOCK,4,RATING_TASK,273,12,0,0,0,0,7954,0,0,1,3415,1,23,2,2,4
273,1,RATING_BLOCK,4,RATING_TASK,274,27,0,0,0,0,real,0,0,4,2465,1,23,2,2,4
274,1,RATING_BLOCK,4,RATING_TASK,275,10,0,0,0,0,1055,0,0,1,1381,1,23,2,2,4
275,1,RATING_BLOCK,4,RATING_TASK,276,24,0,0,0,0,60000,0,0,2,1873,1,23,2,2,4
276,1,RATING_BLOCK,4,RATING_TASK,277,22,0,0,0,0,60000,0,0,5,4770,1,23,2,2,4
277,1,RATING_BLOCK,4,RATING_TASK,278,14,0,0,0,0,7954,0,0,2,1670,1,23,2,2,4
278,1,RATING_BLOCK,4,RATING_TASK,279,2,0,0,0,0,344,0,0,1,1141,1,23,2,2,4
279,1,RATING_BLOCK,4,RATING_TASK,280,25,0,0,0,0,60000,0,0,3,2622,1,23,2,2,4
280,1,RATING_BLOCK,4,RATING_TASK,281,17,0,0,0,0,24440,0,0,4,1772,1,23,2,2,4
281,1,RATING_BLOCK,4,RATING_TASK,282,19,0,0,0,0,24440,0,0,4,1124,1,23,2,2,4
282,1,RATING_BLOCK,4,RATING_TASK,283,29,0,0,0,0,real,0,0,2,7267,1,23,2,2,4
283,1,RATING_BLOCK,4,RATING_TASK,284,30,0,0,0,0,real,0,0,4,5852,1,23,2,2,4
284,1,RATING_BLOCK,4,RATING_TASK,285,9,0,0,0,0,1055,0,0,1,1533,1,23,2,2,4
285,1,RATING_BLOCK,4,RATING_TASK,286,18,0,0,0,0,24440,0,0,1,910,1,23,2,2,4
286,1,RATING_BLOCK,4,RATING_TASK,287,21,0,0,0,0,60000,0,0,2,3391,1,23,2,2,4
287,1,RATING_BLOCK,4,RATING_TASK,288,28,0,0,0,0,real,0,0,4,2749,1,23,2,2,4
288,1,RATING_BLOCK,4,RATING_TASK,289,6,0,0,0,0,1055,0,0,1,1015,1,23,2,2,4
289,1,RATING_BLOCK,4,RATING_TASK,290,4,0,0,0,0,344,0,0,1,579,1,23,2,2,4
290,1,RATING_BLOCK,4,RATING_TASK,291,5,0,0,0,0,344,0,0,1,503,1,23,2,2,4
291,1,RATING_BLOCK,4,RATING_TASK,292,3,0,0,0,0,344,0,0,1,512,1,23,2,2,4
292,1,RATING_BLOCK,4,RATING_TASK,293,8,0,0,0,0,1055,0,0,1,1283,1,23,2,2,4
293,1,RATING_BLOCK,4,RATING_TASK,294,23,0,0,0,0,60000,0,0,4,2283,1,23,2,2,4
294,1,RATING_BLOCK,4,RATING_TASK,295,16,0,0,0,0,24440,0,0,3,2566,1,23,2,2,4
295,1,RATING_BLOCK,4,RATING_TASK,296,15,0,0,0,0,7954,0,0,3,1069,1,23,2,2,4
296,1,RATING_BLOCK,4,RATING_TASK,297,13,0,0,0,0,7954,0,0,2,1791,1,23,2,2,4
297,1,RATING_BLOCK,4,RATING_TASK,298,1,0,0,0,0,344,0,0,1,1397,1,23,2,2,4
298,1,RATING_BLOCK,4,RATING_TASK,299,20,0,0,0,0,24440,0,0,4,2190,1,23,2,2,4
299,1,RATING_BLOCK,4,RATING_TASK,300,11,0,0,0,0,7954,0,0,3,2760,1,23,2,2,4
270,1,RATING_BLOCK,4,RATING_TASK,271,28,0,0,0,0,real,0,0,4,7878,1,24,2,2,4
271,1,RATING_BLOCK,4,RATING_TASK,272,29,0,0,0,0,real,0,0,4,7707,1,24,2,2,4
272,1,RATING_BLOCK,4,RATING_TASK,273,4,0,0,0,0,344,0,0,1,2249,1,24,2,2,4
273,1,RATING_BLOCK,4,RATING_TASK,274,19,0,0,0,0,24440,0,0,4,5613,1,24,2,2,4
274,1,RATING_BLOCK,4,RATING_TASK,275,7,0,0,0,0,1055,0,0,1,1690,1,24,2,2,4
275,1,RATING_BLOCK,4,RATING_TASK,276,21,0,0,0,0,60000,0,0,2,2101,1,24,2,2,4
276,1,RATING_BLOCK,4,RATING_TASK,277,27,0,0,0,0,real,0,0,5,3592,1,24,2,2,4
277,1,RATING_BLOCK,4,RATING_TASK,278,25,0,0,0,0,60000,0,0,2,2246,1,24,2,2,4
278,1,RATING_BLOCK,4,RATING_TASK,279,13,0,0,0,0,7954,0,0,2,1792,1,24,2,2,4
279,1,RATING_BLOCK,4,RATING_TASK,280,26,0,0,0,0,real,0,0,3,4663,1,24,2,2,4
280,1,RATING_BLOCK,4,RATING_TASK,281,14,0,0,0,0,7954,0,0,2,3118,1,24,2,2,4
281,1,RATING_BLOCK,4,RATING_TASK,282,6,0,0,0,0,1055,0,0,2,1768,1,24,2,2,4
282,1,RATING_BLOCK,4,RATING_TASK,283,22,0,0,0,0,60000,0,0,3,2431,1,24,2,2,4
283,1,RATING_BLOCK,4,RATING_TASK,284,2,0,0,0,0,344,0,0,1,1685,1,24,2,2,4
284,1,RATING_BLOCK,4,RATING_TASK,285,16,0,0,0,0,24440,0,0,4,3326,1,24,2,2,4
285,1,RATING_BLOCK,4,RATING_TASK,286,9,0,0,0,0,1055,0,0,2,2099,1,24,2,2,4
286,1,RATING_BLOCK,4,RATING_TASK,287,8,0,0,0,0,1055,0,0,1,2186,1,24,2,2,4
287,1,RATING_BLOCK,4,RATING_TASK,288,12,0,0,0,0,7954,0,0,3,1962,1,24,2,2,4
288,1,RATING_BLOCK,4,RATING_TASK,289,11,0,0,0,0,7954,0,0,3,4334,1,24,2,2,4
289,1,RATING_BLOCK,4,RATING_TASK,290,23,0,0,0,0,60000,0,0,4,4134,1,24,2,2,4
290,1,RATING_BLOCK,4,RATING_TASK,291,20,0,0,0,0,24440,0,0,2,1905,1,24,2,2,4
291,1,RATING_BLOCK,4,RATING_TASK,292,3,0,0,0,0,344,0,0,1,1342,1,24,2,2,4
292,1,RATING_BLOCK,4,RATING_TASK,293,1,0,0,0,0,344,0,0,1,791,1,24,2,2,4
293,1,RATING_BLOCK,4,RATING_TASK,294,15,0,0,0,0,7954,0,0,3,2368,1,24,2,2,4
294,1,RATING_BLOCK,4,RATING_TASK,295,10,0,0,0,0,1055,0,0,2,3936,1,24,2,2,4
295,1,RATING_BLOCK,4,RATING_TASK,296,24,0,0,0,0,60000,0,0,2,1486,1,24,2,2,4
296,1,RATING_BLOCK,4,RATING_TASK,297,5,0,0,0,0,344,0,0,1,1601,1,24,2,2,4
297,1,RATING_BLOCK,4,RATING_TASK,298,18,0,0,0,0,24440,0,0,4,4958,1,24,2,2,4
298,1,RATING_BLOCK,4,RATING_TASK,299,17,0,0,0,0,24440,0,0,4,1883,1,24,2,2,4
299,1,RATING_BLOCK,4,RATING_TASK,300,30,0,0,0,0,real,0,0,4,4498,1,24,2,2,4
271,1,RATING_BLOCK,4,RATING_TASK,272,30,0,0,0,0,real,0,0,5,1772,1,25,2,2,4
272,1,RATING_BLOCK,4,RATING_TASK,273,7,0,0,0,0,1055,0,0,1,3976,1,25,2,2,4
273,1,RATING_BLOCK,4,RATING_TASK,274,17,0,0,0,0,24440,0,0,2,9212,1,25,2,2,4
274,1,RATING_BLOCK,4,RATING_TASK,275,19,0,0,0,0,24440,0,0,3,3442,1,25,2,2,4
275,1,RATING_BLOCK,4,RATING_TASK,276,5,0,0,0,0,344,0,0,1,1956,1,25,2,2,4
276,1,RATING_BLOCK,4,RATING_TASK,277,10,0,0,0,0,1055,0,0,1,1965,1,25,2,2,4
277,1,RATING_BLOCK,4,RATING_TASK,278,24,0,0,0,0,60000,0,0,2,2008,1,25,2,2,4
278,1,RATING_BLOCK,4,RATING_TASK,279,28,0,0,0,0,real,0,0,4,1797,1,25,2,2,4
279,1,RATING_BLOCK,4,RATING_TASK,280,25,0,0,0,0,60000,0,0,2,2737,1,25,2,2,4
280,1,RATING_BLOCK,4,RATING_TASK,281,13,0,0,0,0,7954,0,0,2,1515,1,25,2,2,4
281,1,RATING_BLOCK,4,RATING_TASK,282,3,0,0,0,0,344,0,0,1,1483,1,25,2,2,4
282,1,RATING_BLOCK,4,RATING_TASK,283,16,0,0,0,0,24440,0,0,3,1915,1,25,2,2,4
283,1,RATING_BLOCK,4,RATING_TASK,284,12,0,0,0,0,7954,0,0,3,5716,1,25,2,2,4
284,1,RATING_BLOCK,4,RATING_TASK,285,6,0,0,0,0,1055,0,0,1,2841,1,25,2,2,4
285,1,RATING_BLOCK,4,RATING_TASK,286,14,0,0,0,0,7954,0,0,1,899,1,25,2,2,4
286,1,RATING_BLOCK,4,RATING_TASK,287,20,0,0,0,0,24440,0,0,2,1723,1,25,2,2,4
287,1,RATING_BLOCK,4,RATING_TASK,288,27,0,0,0,0,real,0,0,2,2897,1,25,2,2,4
288,1,RATING_BLOCK,4,RATING_TASK,289,11,0,0,0,0,7954,0,0,1,1803,1,25,2,2,4
289,1,RATING_BLOCK,4,RATING_TASK,290,26,0,0,0,0,real,0,0,2,1535,1,25,2,2,4
290,1,RATING_BLOCK,4,RATING_TASK,291,1,0,0,0,0,344,0,0,1,1234,1,25,2,2,4
291,1,RATING_BLOCK,4,RATING_TASK,292,29,0,0,0,0,real,0,0,4,2059,1,25,2,2,4
292,1,RATING_BLOCK,4,RATING_TASK,293,15,0,0,0,0,7954,0,0,2,2499,1,25,2,2,4
293,1,RATING_BLOCK,4,RATING_TASK,294,21,0,0,0,0,60000,0,0,4,2853,1,25,2,2,4
294,1,RATING_BLOCK,4,RATING_TASK,295,8,0,0,0,0,1055,0,0,1,2658,1,25,2,2,4
295,1,RATING_BLOCK,4,RATING_TASK,296,22,0,0,0,0,60000,0,0,3,3545,1,25,2,2,4
296,1,RATING_BLOCK,4,RATING_TASK,297,9,0,0,0,0,1055,0,0,1,2394,1,25,2,2,4
297,1,RATING_BLOCK,4,RATING_TASK,298,2,0,0,0,0,344,0,0,1,746,1,25,2,2,4
298,1,RATING_BLOCK,4,RATING_TASK,299,4,0,0,0,0,344,0,0,1,604,1,25,2,2,4
299,1,RATING_BLOCK,4,RATING_TASK,300,18,0,0,0,0,24440,0,0,2,1820,1,25,2,2,4
32,2,RATING_BLOCK,3,RATING_TASK,33,20,0,0,0,0,24440,0,0,2,2043,1,26,2,2,4
33,2,RATING_BLOCK,3,RATING_TASK,34,26,0,0,0,0,real,0,0,3,4576,1,26,2,2,4
34,2,RATING_BLOCK,3,RATING_TASK,35,2,0,0,0,0,344,0,0,3,607,1,26,2,2,4
35,2,RATING_BLOCK,3,RATING_TASK,36,13,0,0,0,0,7954,0,0,1,3426,1,26,2,2,4
36,2,RATING_BLOCK,3,RATING_TASK,37,27,0,0,0,0,real,0,0,2,3697,1,26,2,2,4
37,2,RATING_BLOCK,3,RATING_TASK,38,25,0,0,0,0,60000,0,0,2,2325,1,26,2,2,4
38,2,RATING_BLOCK,3,RATING_TASK,39,16,0,0,0,0,24440,0,0,2,2570,1,26,2,2,4
39,2,RATING_BLOCK,3,RATING_TASK,40,9,0,0,0,0,1055,0,0,1,1438,1,26,2,2,4
40,2,RATING_BLOCK,3,RATING_TASK,41,24,0,0,0,0,60000,0,0,1,2361,1,26,2,2,4
41,2,RATING_BLOCK,3,RATING_TASK,42,5,0,0,0,0,344,0,0,1,1147,1,26,2,2,4
42,2,RATING_BLOCK,3,RATING_TASK,43,1,0,0,0,0,344,0,0,1,1366,1,26,2,2,4
43,2,RATING_BLOCK,3,RATING_TASK,44,14,0,0,0,0,7954,0,0,1,1795,1,26,2,2,4
44,2,RATING_BLOCK,3,RATING_TASK,45,15,0,0,0,0,7954,0,0,1,2325,1,26,2,2,4
45,2,RATING_BLOCK,3,RATING_TASK,46,30,0,0,0,0,real,0,0,5,2803,1,26,2,2,4
46,2,RATING_BLOCK,3,RATING_TASK,47,18,0,0,0,0,24440,0,0,2,2267,1,26,2,2,4
47,2,RATING_BLOCK,3,RATING_TASK,48,4,0,0,0,0,344,0,0,1,1409,1,26,2,2,4
48,2,RATING_BLOCK,3,RATING_TASK,49,29,0,0,0,0,real,0,0,5,3766,1,26,2,2,4
49,2,RATING_BLOCK,3,RATING_TASK,50,10,0,0,0,0,1055,0,0,1,1493,1,26,2,2,4
50,2,RATING_BLOCK,3,RATING_TASK,51,17,0,0,0,0,24440,0,0,2,2831,1,26,2,2,4
51,2,RATING_BLOCK,3,RATING_TASK,52,12,0,0,0,0,7954,0,0,2,1183,1,26,2,2,4
52,2,RATING_BLOCK,3,RATING_TASK,53,23,0,0,0,0,60000,0,0,2,5958,1,26,2,2,4
53,2,RATING_BLOCK,3,RATING_TASK,54,8,0,0,0,0,1055,0,0,1,1347,1,26,2,2,4
54,2,RATING_BLOCK,3,RATING_TASK,55,3,0,0,0,0,344,0,0,1,684,1,26,2,2,4
55,2,RATING_BLOCK,3,RATING_TASK,56,28,0,0,0,0,real,0,0,5,1792,1,26,2,2,4
56,2,RATING_BLOCK,3,RATING_TASK,57,7,0,0,0,0,1055,0,0,1,1408,1,26,2,2,4
57,2,RATING_BLOCK,3,RATING_TASK,58,22,0,0,0,0,60000,0,0,2,1733,1,26,2,2,4
58,2,RATING_BLOCK,3,RATING_TASK,59,6,0,0,0,0,1055,0,0,1,1523,1,26,2,2,4
59,2,RATING_BLOCK,3,RATING_TASK,60,19,0,0,0,0,24440,0,0,2,3674,1,26,2,2,4
